ss,sex,age,list,ACC_VerbalAnalogy,RT_VerbalAnalogy,VerbalAnalogy_OverallACC,VerbalAnalogy_OverallRT,Far_High_ACC,Far_High_RT,Far_Low_ACC,Far_Low_RT,Near_High_ACC,Near_High_RT,Near_Low_ACC,Near_Low_RT,BPIndex,BP_Trial1,BP_Intrusions,VisACC,VisRT_total,VisRT_correct,Vis_1rc_inhib_ACC,Vis_1rc_non_ACC,Vis_2rc_inhib_ACC,Vis_2rc_non_ACC,Vis_1rc_inhib_RT_total,Vis_1rc_non_RT_total,Vis_2rc_inhib_RT_total,Vis_2rc_non_RT_total,Vis_1rc_inhib_RT_correct,Vis_1rc_non_RT_correct,Vis_2rc_inhib_RT_correct,Vis_2rc_non_RT_correct,Vis_invalid_1rc_ACC,Vis_invalid_2rc_ACC,Vis_invalid_1rc_RT_correct,Vis_invalid_2rc_RT_correct,Vis_invalid_1rc_RT_total,Vis_invalid_2rc_RT_total,Vis_1rc_dp,Vis_2rc_dp,Vis_1rc_inhib_dp,Vis_1rc_non_dp,Vis_2rc_inhib_dp,Vis_2rc_non_dp,Vis_1rc_hit,Vis_2rc_hit,Vis_1rc_inhib_hit,Vis_1rc_non_hit,Vis_2rc_inhib_hit,Vis_2rc_non_hit,Vis_1rc_FA,Vis_2rc_FA,AQ,AttenSwitch,Comm,DetailAttn,Imagination,SocialSkills,WM,OSpan,RSpan,NumberSeries,RAPM,GenKnow,TextComp,ShipleyVocab
1010,1,20,green1,0.72,2456,0.72,2456,0.67,3187.8,0.87,2438.77,0.6,1937,0.73,2259,0.64,0.7,0,0.659722222,2057.055556,2273.378947,0.541666667,0.708333333,0.708333333,0.833333333,1951.75,2054.25,2048.583333,1688.416667,2158.384615,2121.882353,2320.823529,1906.8,0.583333333,0.583333333,2978.5,2325.071429,2469.791667,2129.541667,0.529067758,0.952022438,0.31506185,0.758950677,0.758950677,1.17784996,0.625,0.770833333,0.541666667,0.708333333,0.708333333,0.833333333,0.416666667,0.416666667,NA,NA,NA,NA,NA,NA,0.16,0.066666667,0.253333333,0.27,0.222222222,0.125,0.2,0.475
1015,2,28,blue2,0.75,2821,0.75,2821,0.53,2964,0.87,2980,0.73,2789.82,0.87,2551.54,0.33,0.9,1,0.854166667,4041.5625,3827.894309,0.958333333,0.916666667,0.75,0.916666667,3146.875,3091.791667,5257.458333,4866.208333,2887.086957,3041.363636,4929.111111,4788.090909,0.791666667,0.791666667,3072.157895,4478.157895,3056.416667,4830.625,2.346338346,1.779639368,2.543882198,2.195211929,1.486707552,2.195211929,0.9375,0.833333333,0.958333333,0.916666667,0.75,0.916666667,0.208333333,0.208333333,20,7,1,8,1,3,0.89,0.853333333,0.933333333,0.87,0.611111111,0.458333333,0.4,0.8
1016,2,19,green2,0.75,5584,0.75,5747,0.53,6116.88,0.73,6520.09,0.8,4405,0.93,5296,0.45,0.65,0,0.527777778,4148.881944,3630.289474,0.541666667,0.375,0.541666667,0.583333333,3239.166667,3775.708333,4071.458333,5142.666667,3634.769231,3826.111111,3950.076923,4767.142857,0.5,0.625,2866.083333,2782.066667,4309.333333,4354.958333,-0.104633456,0.475950049,0.104633456,-0.318639364,0.42327282,0.529067758,0.458333333,0.5625,0.541666667,0.375,0.541666667,0.583333333,0.5,0.375,16,4,2,8,1,1,0.46,0.293333333,0.626666667,0.4,0.277777778,0.291666667,0.266666667,0.5
1020,1,18,green1,0.67,1264,0.67,1264,0.4,1352.17,0.87,1235.23,0.67,1216,0.73,1254,NA,NA,NA,0.486111111,2979.409722,2762.785714,0.5,0.541666667,0.583333333,0.458333333,2772.041667,3000.083333,2926.083333,2840.666667,3285.166667,3488.538462,2473.214286,1952.727273,0.458333333,0.375,2821,2387.333333,3076.625,3260.958333,-0.052388275,-0.266394184,-0.104633456,-2.78e-16,-0.10821097,-0.42327282,0.520833333,0.520833333,0.5,0.541666667,0.583333333,0.458333333,0.541666667,0.625,30,5,8,7,4,6,0.63,0.693333333,0.56,0.4,0.277777778,0.25,0.2,0.6
1022,1,23,green2,0.72,3397,0.72,3397,0.6,4124,0.67,3373,0.8,3312,0.8,2779,0.4,0.5,0,0.854166667,6333.430556,6069.00813,0.875,0.958333333,0.833333333,0.791666667,4348.375,5932.25,8298.875,7189.875,3977.952381,6043.217391,8568.25,7015.263158,0.875,0.791666667,4497.142857,6571.684211,4962.291667,7268.916667,2.533343507,1.699364361,2.300698761,2.882013776,1.779639368,1.624435603,0.916666667,0.8125,0.875,0.958333333,0.833333333,0.791666667,0.125,0.208333333,31,6,6,7,5,7,0.57,0.56,0.573333333,0.47,0.166666667,0.666666667,0.533333333,0.825
1025,2,21,green1,0.92,3493,0.92,3596,0.93,3906.86,0.87,4080.85,0.87,2941,1,3043,0.43,0.7,1,0.784722222,3933.451389,3884,0.75,0.875,0.625,0.75,2829.166667,3445.083333,4482.25,5021.125,2779.944444,3407.904762,4400.8,5338.222222,0.916666667,0.791666667,2943.363636,4759.631579,3085.166667,4737.916667,2.270140686,1.300994213,2.057483877,2.533343507,1.130857165,1.486707552,0.8125,0.6875,0.75,0.875,0.625,0.75,0.083333333,0.208333333,19,6,3,7,0,3,0.53,0.52,0.533333333,0.4,0.444444444,0.416666667,0.6,0.7
1026,2,24,yellow1,0.88,4390,0.88,4390,0.87,4719.62,1,3601.87,0.93,4451,0.73,4787,0.56,0.7,5,0.833333333,4059.451389,3843.641667,0.75,0.916666667,0.791666667,0.833333333,2865.25,3267.666667,4751.25,4587.041667,2523.444444,2970.181818,4616.368421,4466.45,0.916666667,0.791666667,3738.227273,4799.473684,4040.666667,4844.833333,2.350415693,1.699364361,2.057483877,2.765988254,1.624435603,1.779639368,0.833333333,0.8125,0.75,0.916666667,0.791666667,0.833333333,0.083333333,0.208333333,10,3,1,5,1,0,0.83,0.853333333,0.813333333,0.4,0.555555556,0.333333333,0.533333333,0.65
1032,1,22,green1,0.88,3048,0.88,3048,0.87,3210,0.87,3579,0.87,2685,0.93,2720,0.25,0.6,1,NA,NA,NA,NA,NA,NA,NA,NA,NA,NA,NA,NA,NA,NA,NA,NA,NA,NA,NA,NA,NA,NA,NA,NA,NA,NA,NA,NA,NA,NA,NA,NA,NA,NA,NA,19,4,2,6,2,5,0.89,0.866666667,0.92,NA,0.5,NA,NA,NA
1102,1,21,yellow2,0.93,3288,0.93,3288,0.93,3701,0.93,3381,0.87,2331,1,3737,0.083333333,0.6,2,0.868055556,3453.993056,3448.024,0.833333333,0.958333333,0.75,1,2464,2589.916667,4733.625,3917,2469.85,2623.826087,4764.611111,3917,0.875,0.791666667,3101.904762,4018.263158,2939.75,4079.666667,2.408510941,1.962567182,2.117770946,2.882013776,1.486707552,2.849051933,0.895833333,0.875,0.833333333,0.958333333,0.75,1,0.125,0.208333333,24,7,4,4,3,6,0.83,0.76,0.893333333,0.67,0.833333333,0.375,0.533333333,0.825
1109,1,18,red2,0.88,3090,0.88,3090,0.67,3444,1,3137,0.87,3076.92,1,2701.27,0.17,0.65,4,0.659722222,1804.590278,1994.389474,0.625,0.75,0.791666667,0.791666667,1736.666667,1390.375,1954.291667,2171.125,2011.8,1428.444444,1877.526316,2160.578947,0.541666667,0.458333333,2046.692308,2749.727273,1383.875,2191.208333,0.593409867,0.707584346,0.42327282,0.779123206,0.707584346,0.707584346,0.6875,0.791666667,0.625,0.75,0.791666667,0.791666667,0.458333333,0.541666667,23,6,5,6,2,4,0.63,0.866666667,0.4,0.73,0.277777778,0.458333333,0.266666667,0.575
1116,2,21,blue2,0.85,4235,0.85,4235,0.6,4836,1,4084,0.87,4648,0.93,3373.86,0.45,0.65,5,0.916666667,4753.083333,4765.94697,0.833333333,1,0.875,0.958333333,3924.958333,3525.708333,5701.208333,5504.333333,3995.1,3525.708333,5466.333333,5604.086957,0.916666667,0.916666667,3985.136364,6055.727273,3882.5,5979.791667,2.765988254,2.765988254,2.350415693,3.419828259,2.533343507,3.114658523,0.916666667,0.916666667,0.833333333,1,0.875,0.958333333,0.083333333,0.083333333,11,3,2,3,2,1,0.63,0.666666667,0.586666667,0.6,0.611111111,0.458333333,0.333333333,0.625
1119,1,23,red2,0.9,6044,0.9,6044,0.8,6706,0.87,6733,1,5885,0.93,4850,0.214285714,0.7,3,0.951388889,3194.409722,3184.20438,0.958333333,1,1,1,2481.458333,2324.958333,3916.208333,4190.291667,2507.782609,2324.958333,3916.208333,4190.291667,0.875,0.875,2589.285714,3515.571429,2542.833333,3710.708333,3.187183512,3.461340719,2.882013776,3.187183512,3.187183512,3.187183512,0.979166667,1,0.958333333,1,1,1,0.125,0.125,13,3,2,3,2,3,0.82,0.853333333,0.786666667,0.53,0.666666667,0.541666667,0.733333333,0.775
1124,2,21,red2,0.85,8413,0.85,9371,0.87,6329,0.93,11755,0.73,9135.18,0.87,6432.92,0.42,0.7,3,0.743055556,4878.388889,4737.457944,0.75,0.916666667,0.75,0.875,4072.291667,3812.458333,5819.916667,6011.041667,4205.666667,3679.545455,5696.611111,5920.428571,0.583333333,0.583333333,3432.857143,5380.571429,3726.25,5828.375,1.17784996,1.097574953,0.884918144,1.593422521,0.884918144,1.360777775,0.833333333,0.8125,0.75,0.916666667,0.75,0.875,0.416666667,0.416666667,17,6,3,5,1,2,0.54,0.666666667,0.413333333,0.33,0.277777778,0.416666667,0,0.625
1128,2,39,green1,0.92,3566,0.92,3625,0.87,4327.85,0.87,3765.85,0.93,3608,1,2561,0.21,0.7,3,0.708333333,2023.381944,1942.784314,0.875,0.791666667,0.625,0.583333333,1823.208333,1631.666667,2271.875,2162.25,1715.571429,1579.210526,2474,2043.714286,0.833333333,0.541666667,1963.05,2088.384615,2064.166667,2187.125,1.934843132,0.368780432,2.117770946,1.779639368,0.42327282,0.31506185,0.833333333,0.604166667,0.875,0.791666667,0.625,0.583333333,0.166666667,0.458333333,7,0,0,4,1,2,0.84,0.84,0.84,0.6,0.444444444,0.5,0.4,0.7
1132,2,19,red1,0.87,3758,0.87,3968,0.87,4533,0.73,4157,0.87,3201.33,1,3140.4,0.36,0.85,3,0.833333333,3294.8125,3213.733333,0.791666667,1,0.666666667,0.916666667,2415.541667,2344.958333,4114.041667,3989.583333,2437.157895,2344.958333,3951.5625,4063.181818,0.791666667,0.833333333,2684.210526,3972.4,2670,4234.75,2.070379363,1.779639368,1.624435603,2.849051933,1.398148865,2.350415693,0.895833333,0.791666667,0.791666667,1,0.666666667,0.916666667,0.208333333,0.166666667,18,4,3,7,3,1,0.55,0.573333333,0.52,0.6,0.444444444,0.416666667,0.466666667,0.8
1137,2,18,yellow2,0.82,4141,0.82,4258,0.6,4064.78,0.93,4311.23,0.87,4375,0.87,3811,0.33,0.65,1,0.666666667,4282.979167,4154.53125,0.875,0.625,0.625,0.458333333,3952.166667,3570.458333,5357.708333,4697.083333,3928.047619,3573.133333,5296.333333,4798,0.75,0.666666667,3433.111111,4295.625,3478.5,4641.958333,1.3489795,0.535360755,1.824839131,0.993129114,0.749366663,0.326093844,0.75,0.541666667,0.875,0.625,0.625,0.458333333,0.25,0.333333333,15,3,2,7,2,1,0.73,0.76,0.693333333,NA,0.555555556,0.416666667,0.333333333,0.675
1161,2,20,yellow2,0.78,3106,0.78,3106,0.6,3172.56,0.93,2535.36,0.87,3340,0.73,3376,0.7,0.85,2,0.715277778,4154.013889,4716.553398,0.75,0.75,0.583333333,0.875,3270.416667,3252.208333,5053.583333,4514.25,3948.222222,4214.444444,6479.142857,4377.190476,0.708333333,0.625,2936.882353,7088.066667,3480.333333,5353.291667,1.223012033,0.928933974,1.223012033,1.223012033,0.529067758,1.468988744,0.75,0.729166667,0.75,0.75,0.583333333,0.875,0.291666667,0.375,21,5,5,7,1,3,0.41,0.76,0.066666667,0.33,0.111111111,0.25,0.133333333,0.625
1201,2,19,blue1,0.9,3519,0.9,3654,0.67,3373,0.93,4160,1,3295.4,1,3248.93,0.79,0.7,2,0.708333333,5020.569444,5217.892157,0.75,0.708333333,0.708333333,0.708333333,3931.333333,5782.666667,3920,6671.416667,3480.277778,4875.235294,4530.705882,8450.941176,0.666666667,0.708333333,2960.375,6979.235294,3179.25,6638.75,1.041021909,1.097044565,1.105217049,0.979249582,1.097044565,1.097044565,0.729166667,0.708333333,0.75,0.708333333,0.708333333,0.708333333,0.333333333,0.291666667,26,9,7,3,1,6,0.49,0.853333333,0.133333333,0.53,0.444444444,0.458333333,0.666666667,0.575
1204,2,49,green1,0.95,5792,0.95,6038,0.93,5381.86,1,8014.6,0.93,4832,0.93,4937,0.62,0.65,1,0.756944444,3296.430556,3190.862385,0.708333333,0.916666667,0.666666667,0.958333333,2588.958333,2041.958333,4515.75,3758.208333,2523.588235,1927.454545,4465.9375,3578.608696,0.583333333,0.708333333,3033.142857,3898.352941,2774.166667,4099.541667,1.097574953,1.435668842,0.758950677,1.593422521,0.979249582,2.280186679,0.8125,0.8125,0.708333333,0.916666667,0.666666667,0.958333333,0.416666667,0.291666667,9,4,0,3,1,1,0.77,0.666666667,0.866666667,0.47,0.555555556,0.666666667,0.866666667,0.825
1212,1,17,yellow1,0.82,2557,0.82,2557,0.73,2965,0.87,2539,0.8,2583,0.87,2139,0.066666667,0.75,2,0.868055556,3416.381944,3451.928,0.833333333,1,0.791666667,0.875,2783.75,2687.875,3945.375,4448.958333,2834.6,2687.875,4348.052632,4323.047619,0.875,0.833333333,2834.761905,3868.15,2856,3776.333333,2.533343507,1.934843132,2.117770946,3.187183512,1.779639368,2.117770946,0.916666667,0.833333333,0.833333333,1,0.791666667,0.875,0.125,0.166666667,16,4,4,6,0,2,0.65,0.88,0.426666667,0.87,0.611111111,0.541666667,0.533333333,0.625
1213,2,19,yellow1,0.72,3681,0.72,3681,0.67,3111,0.6,4026.33,0.8,4346,0.8,3239,-0.07,0.45,6,0.854166667,4400.090278,4341.739837,0.875,0.958333333,0.833333333,0.916666667,3055.541667,2867.416667,5916.333333,5700.416667,3033.047619,2829.26087,5789.3,5642.545455,0.791666667,0.75,3769.421053,5207,3703.958333,5156.875,2.195211929,1.824839131,1.962567182,2.543882198,1.641911316,2.057483877,0.916666667,0.875,0.875,0.958333333,0.833333333,0.916666667,0.208333333,0.25,14,3,2,6,2,1,0.66,0.8,0.52,0.47,0.388888889,0.333333333,0.466666667,0.625
1214,1,23,red1,0.95,5102,0.95,5215,0.93,6646,1,4856,0.87,4961.92,1,3944.73,0.31,0.8,2,NA,NA,NA,NA,NA,NA,NA,NA,NA,NA,NA,NA,NA,NA,NA,NA,NA,NA,NA,NA,NA,NA,NA,NA,NA,NA,NA,NA,NA,NA,NA,NA,NA,NA,NA,13,4,0,7,2,0,0.66,0.786666667,0.533333333,NA,0.611111111,NA,NA,NA
1215,2,22,yellow1,0.88,3179,0.88,3179,0.73,3612.36,1,2470.07,0.93,4046,0.87,2589,0.67,0.65,2,0.729166667,4515.215278,4495.142857,0.75,0.875,0.625,0.916666667,4224.5,4390.25,4826.208333,4390.666667,4515.444444,4131.285714,4458.4,4235.045455,0.666666667,0.541666667,4575.6875,5438.230769,4358.583333,4901.083333,1.317873858,0.846227499,1.105217049,1.58107668,0.42327282,1.487627583,0.8125,0.770833333,0.75,0.875,0.625,0.916666667,0.333333333,0.458333333,15,4,1,9,0,1,0.7,0.786666667,0.613333333,0.67,0.611111111,0.333333333,0.133333333,0.775
1218,2,23,blue1,0.72,4314,0.72,4314,0.33,3929,0.87,5214,0.73,4621,0.93,3491.86,0.33,0.5,7,0.625,684.8611111,656.1666667,0.875,0.875,0.875,0.708333333,586.0416667,856.0833333,589.3333333,638.5,564.3809524,693.047619,499.1904762,500,0.125,0.291666667,901.6666667,1565.857143,522.875,916.3333333,0,0.263695519,0,0,0.601827098,0,0.875,0.791666667,0.875,0.875,0.875,0.708333333,0.875,0.708333333,20,5,2,6,4,3,0.35,0.373333333,0.32,0.33,0,0.375,0.133333333,0.55
1219,2,19,yellow2,0.75,4942,0.75,5106,0.53,4414.25,0.8,5399.75,0.8,5873,0.87,4082,0.31,0.65,2,0.729166667,3658.083333,3409.657143,0.833333333,0.833333333,0.625,0.708333333,2618.583333,2522.666667,4676.166667,5091.625,2665.2,2320.85,4823.533333,4728.823529,0.791666667,0.583333333,2679.631579,3902.642857,2652.666667,4386.791667,1.779639368,0.641155694,1.779639368,1.779639368,0.529067758,0.758950677,0.833333333,0.666666667,0.833333333,0.833333333,0.625,0.708333333,0.208333333,0.416666667,15,4,2,6,2,1,0.67,0.666666667,0.68,0.67,0.5,0.5,0.266666667,0.6
1223,NA,NA,NA,NA,NA,NA,NA,NA,NA,NA,NA,NA,NA,NA,NA,0.38,0.8,0,0.944444444,2741.076389,2717.977941,0.958333333,1,0.916666667,1,2047.5,1975.75,3625.791667,3527.208333,2074.608696,1975.75,3692.954545,3527.208333,0.916666667,0.875,1924.590909,3155.809524,2014.166667,3256.041667,3.419828259,2.882013776,3.114658523,3.419828259,2.533343507,3.187183512,0.979166667,0.958333333,0.958333333,1,0.916666667,1,0.083333333,0.125,18,5,2,7,2,2,0.82,0.826666667,0.813333333,0.53,0.388888889,0.458333333,0.533333333,0.7
1228,2,27,green2,0.88,4285,0.88,4285,0.8,4519.83,0.93,5414.21,0.93,3663,0.87,3542,0.2,0.8,0,0.875,6138.875,5862.587302,0.916666667,0.958333333,0.875,0.875,4202.75,3689.416667,8298.541667,8006.416667,4071.909091,3602.217391,8275.666667,7720.095238,0.875,0.75,4996.142857,6967.944444,5236.541667,7399.583333,2.684469925,1.824839131,2.533343507,2.882013776,1.824839131,1.824839131,0.9375,0.875,0.916666667,0.958333333,0.875,0.875,0.125,0.25,13,1,1,5,3,3,0.79,0.813333333,0.76,0.4,0.444444444,0.375,0.6,0.75
1230,2,22,red2,0.75,2521,0.75,2569,0.73,2857,0.87,2976,0.53,2316.63,0.87,1936.25,0.5,1,0,0.8125,3927.291667,3949.683761,0.708333333,0.791666667,0.708333333,0.958333333,3312.083333,2601.125,4788.208333,5467.75,2892.470588,2703.842105,5263.529412,5493.130435,0.833333333,0.875,3348.8,3750.952381,3310,4084.583333,1.641911316,2.117770946,1.515943849,1.779639368,1.698871663,2.882013776,0.75,0.833333333,0.708333333,0.791666667,0.708333333,0.958333333,0.166666667,0.125,16,3,3,5,3,2,0.65,0.546666667,0.746666667,0.33,0.5,0.5,0.333333333,0.625
1234,2,22,yellow1,0.72,8117,0.72,8605,0.53,9359.5,0.8,8653.92,0.73,7986,0.8,6468,0,0.55,0,0.8125,2889.520833,2860.564103,0.875,0.791666667,0.958333333,0.875,2341.333333,2085.041667,3403.208333,3512.583333,2309,1954.526316,3483.130435,3517.904762,0.75,0.625,2494.444444,3344.866667,2553.5,3441.458333,1.641911316,1.701633491,1.824839131,1.486707552,2.05030376,1.468988744,0.833333333,0.916666667,0.875,0.791666667,0.958333333,0.875,0.25,0.375,16,4,1,5,2,4,0.61,0.826666667,0.4,0.47,0.333333333,0.375,0.2,0.65
1247,1,21,green1,0.78,4536,0.78,4689,0.6,4493.56,0.73,3854.27,0.87,6141,0.93,3654,0.92,0.65,2,0.638888889,4794.368056,4972.630435,0.75,0.75,0.583333333,0.75,4253.25,4708.25,4965.666667,4948.291667,4320.166667,5124.222222,5949.714286,4931.388889,0.458333333,0.541666667,3611,5823.153846,4384.625,5506.125,0.569856295,0.535360755,0.569856295,0.569856295,0.31506185,0.779123206,0.75,0.666666667,0.75,0.75,0.583333333,0.75,0.541666667,0.458333333,21,6,1,7,4,3,0.32,0.306666667,0.333333333,0.6,0.388888889,0.416666667,0.2,0.55
1294,1,20,yellow2,0.83,3287,0.83,3412,0.53,3438.5,0.93,3859.93,0.87,3047,1,2804,0.79,0.7,2,0.666666667,3523.694444,3542.458333,0.75,0.625,0.5,0.625,2879.041667,3140.083333,3824.166667,4190.75,3062.444444,3122,4067.75,4578.466667,0.791666667,0.708333333,3040.842105,3697.411765,3166.958333,3941.166667,1.300994213,0.705832967,1.486707552,1.130857165,0.548522283,0.867161647,0.6875,0.5625,0.75,0.625,0.5,0.625,0.208333333,0.291666667,11,4,0,5,2,0,0.61,0.72,0.493333333,0.47,0.388888889,0.625,0.333333333,0.65
1295,2,18,red1,0.93,3690,0.93,3690,0.93,3876,0.93,3864,0.93,3876.43,0.93,3142.36,0.46,0.7,6,0.923611111,3443.277778,3421.323308,0.958333333,1,0.916666667,0.958333333,2456.666667,2653.416667,4268.666667,4490.666667,2464.782609,2653.416667,4472.545455,4405.130435,0.916666667,0.791666667,2787.045455,3875.526316,2784.708333,4005.541667,3.419828259,2.346338346,3.114658523,3.419828259,2.195211929,2.543882198,0.979166667,0.9375,0.958333333,1,0.916666667,0.958333333,0.083333333,0.208333333,17,6,4,5,2,0,0.79,0.84,0.746666667,0.53,0.611111111,0.666666667,0.866666667,0.775
1325,1,20,green2,0.82,5734,0.82,6470,0.67,5957.11,0.93,6088.29,0.73,6150,0.93,4740,0.31,0.65,3,0.909722222,3700.645833,3589.946565,1,1,0.833333333,0.958333333,2403.5,2388.375,5006.333333,4634.75,2403.5,2388.375,4557.05,4602.73913,0.875,0.791666667,2992.380952,5022.842105,2905.958333,4864.958333,3.461340719,2.070379363,3.187183512,3.187183512,1.779639368,2.543882198,1,0.895833333,1,1,0.833333333,0.958333333,0.125,0.208333333,22,6,2,8,6,0,0.82,0.773333333,0.866666667,0.53,0.777777778,0.416666667,0.266666667,0.65
1361,2,20,yellow1,0.77,2281,0.77,2339,0.67,2445.2,0.93,2645.29,0.53,2101,0.93,1933,0.56,0.8,2,0.944444444,2870.055556,2872.183824,0.916666667,1,0.958333333,1,2085.541667,2049,3969.541667,3448.583333,2005.409091,2049,4017.695652,3448.583333,0.916666667,0.875,2160.545455,3553.190476,2181.666667,3486,3.114658523,3.187183512,2.765988254,3.419828259,2.882013776,3.187183512,0.958333333,0.979166667,0.916666667,1,0.958333333,1,0.083333333,0.125,6,3,0,2,0,1,0.91,0.933333333,0.893333333,0.67,0.666666667,0.833333333,0.8,0.85
1406,2,19,blue1,0.85,3367,0.85,3423,0.87,4197,0.8,3103,0.8,3518.58,0.93,2650.62,0.33,0.65,1,NA,NA,NA,NA,NA,NA,NA,NA,NA,NA,NA,NA,NA,NA,NA,NA,NA,NA,NA,NA,NA,NA,NA,NA,NA,NA,NA,NA,NA,NA,NA,NA,NA,NA,NA,19,5,5,3,3,3,0.83,0.853333333,0.813333333,NA,0.333333333,NA,NA,NA
1414,1,18,blue2,0.93,5206,0.93,5206,1,6182,0.93,4781,0.93,4773,0.87,5089,0.125,0.8,0,0.902777778,5336.465278,5256.592308,1,0.958333333,0.875,0.916666667,3479.5,3900.833333,6919,7142.5,3479.5,3923.608696,6293.238095,7274.590909,0.916666667,0.75,4377.227273,6728.222222,4539.375,6037.583333,3.419828259,1.932651311,3.419828259,3.114658523,1.824839131,2.057483877,0.979166667,0.895833333,1,0.958333333,0.875,0.916666667,0.083333333,0.25,16,4,3,4,4,1,0.82,0.773333333,0.866666667,0.8,0.722222222,0.916666667,0.866666667,0.8
1415,1,45,green2,0.98,8360,0.98,8360,1,9019.93,1,9440.67,0.93,8414,1,6567,0.41,0.6,0,0.965277778,3418.381944,3449.100719,1,1,1,0.958333333,2716.125,2534.208333,4659.375,4465,2716.125,2534.208333,4659.375,4508.913043,0.916666667,0.916666667,2655.136364,3612.454545,2578.375,3557.208333,3.693985465,3.419828259,3.419828259,3.419828259,3.419828259,3.114658523,1,0.979166667,1,1,1,0.958333333,0.083333333,0.083333333,25,3,6,5,7,4,0.89,0.84,0.946666667,0.67,0.555555556,0.916666667,0.866666667,0.7
1418,1,18,yellow1,0.73,3317,0.73,3317,0.6,3761,0.87,3700,0.6,3391,0.87,2418,0.461538462,0.65,3,0.888888889,4598.027778,4619.101563,0.833333333,0.958333333,0.875,0.958333333,3234.041667,3409.5,5739.166667,4711.625,3228.3,3404.826087,5778.52381,4780.521739,0.833333333,0.875,4265.7,6273.952381,4426,6067.833333,2.225583127,2.533343507,1.934843132,2.699085962,2.300698761,2.882013776,0.895833333,0.916666667,0.833333333,0.958333333,0.875,0.958333333,0.166666667,0.125,16,5,0,5,2,4,0.65,0.613333333,0.68,0.47,0.333333333,0.333333333,0.4,0.775
1478,1,18,blue2,0.7,4967,0.7,4967,0.4,5311,0.8,4874,0.8,4932,0.8,4753,0.5,0.6,4,0.902777778,4199.895833,4154.369231,1,1,0.958333333,1,3286.166667,3200.375,5587.458333,5222.416667,3286.166667,3200.375,5534.173913,5222.416667,0.875,0.583333333,3183.714286,4636.357143,3183.333333,4719.625,3.461340719,2.247262526,3.187183512,3.187183512,1.94209279,2.247262526,1,0.979166667,1,1,0.958333333,1,0.125,0.416666667,20,5,5,2,3,5,0.65,0.72,0.586666667,0.8,0.5,0.375,0.066666667,0.6
1500,2,20,red1,0.9,3149,0.9,3238,0.8,3573,0.93,3731,0.93,2847.64,0.93,2442.92,0.36,0.85,0,0.9375,2748.722222,2772.022222,1,1,0.958333333,1,1866.958333,2036.416667,3638.5,3672.833333,1866.958333,2036.416667,3655.434783,3672.833333,0.833333333,0.833333333,2263,3152.95,2208.958333,3068.666667,3.278412904,3.004255698,3.004255698,3.004255698,2.699085962,3.004255698,1,0.979166667,1,1,0.958333333,1,0.166666667,0.166666667,15,5,1,7,1,1,0.9,0.866666667,0.933333333,0.53,0.722222222,0.541666667,0.6,0.85
1501,1,35,blue2,0.88,2712,0.88,2813,0.73,3123,0.93,3390,0.93,2066.15,0.93,2269.64,0.27,0.75,1,0.944444444,2373.548611,2387.198529,1,1,1,0.958333333,1656,1587.25,3412.125,3011.166667,1656,1587.25,3412.125,2978.434783,0.833333333,0.875,1668.05,3003.095238,1624.25,2950.5,3.278412904,3.187183512,3.004255698,3.004255698,3.187183512,2.882013776,1,0.979166667,1,1,1,0.958333333,0.166666667,0.125,22,6,5,7,0,4,0.94,0.933333333,0.946666667,0.8,0.666666667,0.666666667,0.8,0.925
1515,1,20,blue2,0.92,6519,0.92,6519,0.93,6635,0.93,6985,0.93,7350.14,0.87,5106.85,0.75,0.7,1,0.833333333,3605.548611,3559.358333,0.75,0.875,0.5,0.958333333,2786.875,2350.708333,4523.875,4081.375,2613.666667,2383.666667,4736.583333,4082.956522,1,0.916666667,3269.708333,4581.818182,3269.708333,4620.75,2.923980691,1.993288737,2.711323882,3.187183512,1.382994127,3.114658523,0.8125,0.729166667,0.75,0.875,0.5,0.958333333,0,0.083333333,23,6,4,5,2,6,NA,NA,NA,0.67,0.444444444,0.375,0.333333333,0.35
1585,1,18,red1,0.82,1714,0.82,1768,0.6,1643,0.8,1945,0.87,1841.31,1,1428.07,0.27,0.75,0,0.548611111,1594.9375,1473.531646,0.583333333,0.666666667,0.458333333,0.666666667,1488.916667,1430.291667,1603.25,1688,1231.642857,1276.125,1530.181818,1727.625,0.416666667,0.5,1734.8,1410.5,1774.958333,1584.208333,0.10821097,0.157310685,2.78e-16,0.220298905,-0.104633456,0.430727299,0.625,0.5625,0.583333333,0.666666667,0.458333333,0.666666667,0.583333333,0.5,15,7,0,6,1,1,0.94,0.946666667,0.933333333,0.33,0.333333333,0.458333333,0.2,0.65
1586,1,24,yellow2,0.75,3660,0.75,3660,0.47,4404,0.8,3714,0.87,3339,0.87,3184,0.230769231,0.65,0,0.875,3233.25,3145.746032,0.958333333,0.958333333,0.875,0.875,2357.75,2320.708333,4447.291667,3758.25,2331.826087,2256.173913,4431.666667,3791.047619,0.833333333,0.75,3133.5,3082.944444,3358.041667,3157.458333,2.699085962,1.824839131,2.699085962,2.699085962,1.824839131,1.824839131,0.958333333,0.875,0.958333333,0.958333333,0.875,0.875,0.166666667,0.25,26,8,2,4,5,7,0.9,0.893333333,0.906666667,0.47,0.444444444,0.625,0.6,0.65
1613,2,23,red1,0.78,4060,0.78,4060,0.53,4349,0.93,4420,0.8,4044.67,0.87,3427,0.6,0.75,1,NA,NA,NA,NA,NA,NA,NA,NA,NA,NA,NA,NA,NA,NA,NA,NA,NA,NA,NA,NA,NA,NA,NA,NA,NA,NA,NA,NA,NA,NA,NA,NA,NA,NA,NA,17,2,0,10,3,2,0.97,1,0.933333333,NA,0.333333333,NA,NA,NA
1625,2,20,blue2,0.52,3414,0.52,3414,0.2,3484,0.73,3644,0.53,3354.38,0.6,3174.11,0.33,0.6,0,0.611111111,7356.0625,6565.227273,0.75,0.833333333,0.625,0.583333333,5495.833333,6621.708333,9135.375,7125.25,5241.055556,5967.8,7139.066667,7426.714286,0.333333333,0.541666667,7608.375,7086,8457.583333,7300.625,0.381490502,0.368780432,0.243762451,0.536694267,0.42327282,0.31506185,0.791666667,0.604166667,0.75,0.833333333,0.625,0.583333333,0.666666667,0.458333333,16,2,1,7,3,3,0.81,0.693333333,0.933333333,0.33,0.5,0.333333333,0.2,0.55
1731,1,19,green2,0.73,4353,0.73,4353,0.67,4341,0.8,3801,0.53,5089,0.93,4182,0.357142857,0.7,0,0.8125,3912.75,4122.760684,0.833333333,0.875,0.791666667,1,3203.833333,2995.583333,4674.791667,3938,3535.9,3180.285714,4465.684211,3938,0.666666667,0.708333333,4685.0625,5325.764706,3938.541667,4725.75,1.485199751,1.806683844,1.398148865,1.58107668,1.360740084,2.585356414,0.854166667,0.895833333,0.833333333,0.875,0.791666667,1,0.333333333,0.291666667,29,6,4,9,3,7,0.57,0.84,0.293333333,0.87,0.277777778,0.666666667,0.133333333,0.65
1745,1,27,yellow2,0.53,1558,0.53,1558,0.33,1620,0.53,1983,0.73,1420,0.53,1207,0.714285714,0.7,1,0.555555556,1123.625,1099.8625,0.458333333,0.583333333,0.583333333,0.666666667,841.625,1080.041667,1278.208333,1482.333333,1025.181818,1330.285714,1331.214286,1241.25,0.416666667,0.625,389,1046.733333,978.125,1081.416667,-0.158183214,0.637278728,-0.31506185,2.78e-16,0.529067758,0.749366663,0.520833333,0.625,0.458333333,0.583333333,0.583333333,0.666666667,0.583333333,0.375,24,7,4,5,3,5,0.01,0.026666667,0,0.47,0.166666667,0.375,0.4,0.6
1771,2,43,red2,0.72,4389,0.72,4555,0.47,4667,0.8,4630,0.6,4392.11,1,3868.36,0.08,0.5,8,0.708333333,3869.763889,3769.333333,0.833333333,0.875,0.875,0.875,3161.916667,2757.041667,4198.875,4167.916667,2986.05,2761.428571,4146.809524,3687.952381,0.416666667,0.375,4700.9,6135.777778,3856.5,5076.333333,0.844044058,0.831710016,0.756993172,0.939920986,0.831710016,0.831710016,0.854166667,0.875,0.833333333,0.875,0.875,0.875,0.583333333,0.625,25,5,4,8,5,3,0.55,0.666666667,0.44,0.2,0.5,0.291666667,0.133333333,0.6
1788,1,17,green2,0.92,2376,0.92,2780,0.8,2205.92,0.93,2387.31,1,2584,0.93,2325,0.28,0.85,1,0.930555556,2939.625,2923.462687,0.958333333,1,0.958333333,0.958333333,1994.25,2185.875,3934.083333,4011.583333,1964.73913,2185.875,3941,3972.26087,0.833333333,0.875,2426.9,3026.238095,2477.625,3034.333333,3.004255698,2.882013776,2.699085962,3.004255698,2.882013776,2.882013776,0.979166667,0.958333333,0.958333333,1,0.958333333,0.958333333,0.166666667,0.125,16,5,2,6,1,2,0.93,0.933333333,0.92,0.73,0.666666667,0.75,0.6,0.725
1795,2,19,yellow2,0.82,3674,0.82,3827,0.67,4150.5,1,4056.93,0.87,3590,0.73,2900,0.24,0.65,1,0.854166667,2862.055556,2784.520325,0.916666667,0.916666667,0.833333333,0.916666667,2022.875,2074.083333,3767.375,3685.25,1982.818182,2070.136364,3657.9,3707.136364,0.875,0.666666667,2060.142857,3459.5625,2067.958333,3554.791667,2.533343507,1.58107668,2.533343507,2.533343507,1.398148865,1.813721426,0.916666667,0.875,0.916666667,0.916666667,0.833333333,0.916666667,0.125,0.333333333,17,4,2,3,5,3,0.79,0.866666667,0.72,0.53,0.555555556,0.458333333,0.333333333,0.65
1812,1,24,green1,0.92,2609,0.92,2682,0.87,2515.08,0.93,3131.93,0.87,2985,1,1805,0.15,0.65,1,0.729166667,3398.326389,3274.47619,0.666666667,0.875,0.666666667,0.791666667,3057.625,3121.583333,3603.208333,3703.75,2959.1875,3041.428571,3698.75,3602.210526,0.791666667,0.583333333,2762.684211,3749.285714,3083.166667,3820.625,1.553811845,0.820723004,1.242945101,1.962567182,0.641155694,1.022646196,0.770833333,0.729166667,0.666666667,0.875,0.666666667,0.791666667,0.208333333,0.416666667,14,7,2,3,1,1,0.81,0.92,0.706666667,0.47,0.388888889,0.625,0.733333333,0.8
1818,1,18,yellow2,0.85,4377,0.85,4377,0.73,3788,0.93,4462,0.73,4805,1,4453,0.6,0.75,2,0.888888889,3722.319444,3777.578125,0.791666667,1,0.958333333,1,2852.375,3853.333333,4364.125,4256.958333,2829.789474,3853.333333,4395.695652,4256.958333,0.791666667,0.791666667,2889.368421,4164.105263,2850,4157.125,2.070379363,2.849051933,1.624435603,2.849051933,2.543882198,2.849051933,0.895833333,0.979166667,0.791666667,1,0.958333333,1,0.208333333,0.208333333,30,9,8,6,3,4,0.83,0.746666667,0.906666667,NA,0.611111111,0.375,0.8,0.725
1824,2,23,yellow2,0.95,4988,0.95,5086,0.93,5359,1,5173.93,1,5066,0.87,4354,0.28,0.55,4,0.840277778,3735.3125,3660.446281,0.916666667,1,0.791666667,0.833333333,3306.416667,2171.583333,4717.791667,4638.416667,3366.5,2171.583333,4732.052632,4864.45,0.833333333,0.666666667,3220.4,4070.4375,3328.958333,4248.708333,2.699085962,1.317873858,2.350415693,3.004255698,1.242945101,1.398148865,0.958333333,0.8125,0.916666667,1,0.791666667,0.833333333,0.166666667,0.333333333,27,9,5,6,2,5,0.54,0.6,0.48,0.4,0.5,0.625,0.6,0.875
1905,1,18,yellow2,0.77,4477,0.77,4601,0.67,3488.7,1,4096.14,0.67,5785,0.73,4538,NA,NA,NA,0.8125,4260.027778,4223.512821,0.75,0.958333333,0.625,0.916666667,4002.625,3429.208333,5309.625,5318,3708.333333,3479.086957,5630,5409.909091,0.875,0.75,2883.52381,4631.111111,2941.166667,4559.541667,2.204821832,1.416083794,1.824839131,2.882013776,0.993129114,2.057483877,0.854166667,0.770833333,0.75,0.958333333,0.625,0.916666667,0.125,0.25,19,7,2,5,2,3,NA,NA,NA,0.93,0.666666667,0.458333333,0.133333333,0.7
1920,2,19,green2,0.87,5293,0.87,5531,0.73,8633.45,0.93,4590.64,0.8,4245,1,3703,0.51,0.8,0,0.75,3355.756944,3161.277778,0.916666667,0.916666667,0.666666667,0.625,2739.958333,3139.708333,4078.458333,3626.666667,2757.818182,2849.227273,4021.625,3247.933333,0.708333333,0.666666667,2669.294118,3726.25,2794.666667,3755.083333,1.93151641,0.804822709,1.93151641,1.93151641,0.861454599,0.749366663,0.916666667,0.645833333,0.916666667,0.916666667,0.666666667,0.625,0.291666667,0.333333333,14,4,2,7,0,1,0.69,0.706666667,0.68,0.47,0.388888889,0.375,0.6,0.65
1922,2,40,blue1,0.78,3395,0.78,3395,0.6,3288,0.93,3682,0.73,3694.55,0.87,2913.31,-0.21,0.45,7,0.527777778,1159.159722,1136.539474,0.708333333,0.708333333,0.583333333,0.583333333,1141.333333,1114.666667,1212.833333,1070.166667,1155,1076.705882,1163.214286,924.5714286,0.291666667,0.291666667,1377.142857,1367,1162.75,1253.208333,0,-0.338093888,0,0,-0.338093888,-0.338093888,0.708333333,0.583333333,0.708333333,0.708333333,0.583333333,0.583333333,0.708333333,0.708333333,21,6,3,6,4,2,0.65,0.72,0.586666667,0.33,0.222222222,0.416666667,0.2,0.775
1957,2,20,yellow2,0.95,6286,0.95,6469,0.93,7504.71,1,6701.15,1,6133,0.87,4803,0.59,0.75,0,0.868055556,4326.604167,4214.136,1,0.916666667,0.916666667,0.708333333,3329.291667,3072.333333,5092.791667,5719.666667,3329.291667,3005.318182,5026.772727,5826.411765,0.833333333,0.833333333,3530.95,5024.5,3750.333333,4995.208333,2.699085962,1.854568125,3.004255698,2.350415693,2.350415693,1.515943849,0.958333333,0.8125,1,0.916666667,0.916666667,0.708333333,0.166666667,0.166666667,19,4,4,7,1,3,0.42,0.493333333,0.346666667,0.33,0.5,0.375,0.4,0.75
1960,1,21,red2,0.72,2433,0.72,2433,0.73,2370,0.6,2518,0.73,2680,0.8,2163,0.2,0.5,14,0.555555556,1099.027778,1047.525,0.666666667,0.625,0.458333333,0.666666667,1389.375,572.0416667,1049.833333,1002.708333,1223.4375,582,1000.090909,1316.8125,0.5,0.416666667,1189.166667,915.7,1229.666667,1350.541667,0.37409541,-0.05311771,0.430727299,0.318639364,-0.31506185,0.220298905,0.645833333,0.5625,0.666666667,0.625,0.458333333,0.666666667,0.5,0.583333333,28,7,5,5,5,6,0.7,0.853333333,0.546666667,0.33,0.111111111,0.458333333,0.266666667,0.65
1963,1,19,red1,0.62,2844,0.62,2844,0.67,3914,0.53,2860,0.47,2786.86,0.8,1815.92,0.54,0.6,0,0.569444444,865.1319444,869.4268293,0.541666667,0.666666667,0.791666667,0.75,708.2916667,986.7083333,820.125,901.0416667,585.6923077,1001.125,839.7894737,1007.388889,0.416666667,0.25,759.5,996.1666667,878,896.625,0.053718583,0.067104294,-0.105794939,0.220298905,0.137728051,0,0.604166667,0.770833333,0.541666667,0.666666667,0.791666667,0.75,0.583333333,0.75,12,2,2,4,2,2,0.47,0.72,0.21333333300000001,0.27,0.166666667,0.291666667,0.466666667,0.6
1964,2,18,green2,0.92,4466,0.92,4651,0.87,5342.46,0.93,5141.77,0.87,3795,1,3583,0.5,0.6,3,0.861111111,3735.805556,3695.33871,1,0.958333333,0.791666667,0.958333333,2674.833333,2898.625,4980.875,4101.458333,2674.833333,2907.304348,5398.526316,4084.521739,0.708333333,0.75,3139.823529,4292.5,3282.958333,4476.083333,2.585356414,1.824839131,2.585356414,2.280186679,1.486707552,2.406154146,0.979166667,0.875,1,0.958333333,0.791666667,0.958333333,0.291666667,0.25,18,6,1,6,2,3,0.61,0.653333333,0.56,0.47,0.666666667,0.625,0.6,0.725
1980,2,33,blue2,0.82,3677,0.82,4246,0.6,4339,0.8,3690,0.93,3254.92,0.93,3424.85,NA,NA,NA,0.458333333,3923.451389,4008.621212,0.333333333,0.458333333,0.458333333,0.291666667,3312.083333,3442.458333,4401.708333,4167.666667,2821.625,3623.636364,4335.727273,3939.714286,0.583333333,0.625,3912.285714,4806.2,3721.375,4495.416667,-0.053718583,0,-0.220298905,0.105794939,0.214005908,-0.229882919,0.395833333,0.375,0.333333333,0.458333333,0.458333333,0.291666667,0.416666667,0.375,23,4,4,6,6,3,0.7,0.64,0.76,0.47,0.277777778,NA,NA,NA
1989,1,25,blue2,0.83,4330,0.83,4330,0.6,4514,1,4740,0.87,3758,0.87,4310,0.3,0.5,7,0.888888889,4638.090278,4477.945313,0.875,1,0.708333333,1,3580.416667,3665.083333,5865.25,5302.791667,3397,3665.083333,5777.117647,5302.791667,0.916666667,0.833333333,4088.818182,4922.3,4174.708333,5240.291667,2.917114671,2.021894018,2.533343507,3.419828259,1.515943849,3.004255698,0.9375,0.854166667,0.875,1,0.708333333,1,0.083333333,0.166666667,11,4,1,3,1,2,0.44,0.12,0.76,0.4,0.5,0.458333333,0.4,0.65
1992,2,21,blue1,0.77,3828,0.77,3978,0.53,4877,0.93,3739,0.8,3575.91,0.8,3118.75,0.06,0.8,1,0.888888889,3396.625,3344.789063,0.958333333,1,0.75,1,2535.291667,2706.375,4177.625,4004.25,2502.826087,2706.375,4184.166667,4004.25,0.875,0.75,3005.047619,3949.555556,3133.375,3822.833333,3.187183512,1.824839131,2.882013776,3.187183512,1.3489795,2.711323882,0.979166667,0.875,0.958333333,1,0.75,1,0.125,0.25,15,2,2,6,4,1,0.91,0.853333333,0.96,0.47,0.611111111,0.291666667,0.466666667,0.65
1993,2,20,blue1,0.97,4913,0.97,5333,0.87,4187,1,4623,1,4737.64,1,6105.87,0.38,0.8,1,0.951388889,3038.152778,2998.481752,0.958333333,1,1,0.958333333,2111.208333,2314.5,3951.833333,3951,2086.869565,2314.5,3951.833333,3854.652174,0.916666667,0.875,2344,3437,2345.666667,3554.708333,3.419828259,3.187183512,3.114658523,3.419828259,3.187183512,2.882013776,0.979166667,0.979166667,0.958333333,1,1,0.958333333,0.083333333,0.125,15,3,0,9,2,1,0.84,0.786666667,0.893333333,0.67,0.888888889,0.625,0.866666667,0.725
1994,2,19,green1,0.8,6656,0.8,6839,0.6,8263,0.87,6638.15,0.87,6388,0.87,5333,0.42,0.6,0,NA,NA,NA,NA,NA,NA,NA,NA,NA,NA,NA,NA,NA,NA,NA,NA,NA,NA,NA,NA,NA,NA,NA,NA,NA,NA,NA,NA,NA,NA,NA,NA,NA,NA,NA,NA,NA,NA,NA,NA,NA,0.5,0.44,0.56,NA,0.333333333,NA,NA,NA
1995,1,18,yellow2,0.67,6532,0.67,6532,0.87,6299.23,0.53,8780.75,0.53,5051,0.73,5995,0.63,0.65,0,0.930555556,3601.930556,3523.932836,1,1,0.958333333,0.875,2687.125,2553.625,4901.291667,4485,2687.125,2553.625,4889.826087,4538.095238,0.916666667,0.833333333,2787.090909,3867.35,2893.25,4091.291667,3.693985465,2.350415693,3.419828259,3.419828259,2.699085962,2.117770946,1,0.916666667,1,1,0.958333333,0.875,0.083333333,0.166666667,22,5,3,6,7,1,0.73,0.853333333,0.613333333,0.33,0.333333333,0.375,0.133333333,0.35
1996,1,19,green2,0.55,1814,0.55,2181,0.47,287.86,0.53,5434.25,0.53,287,0.67,1247,0.67,0.55,5,0.541666667,2657.173611,2543.5,0.625,0.583333333,0.625,0.5,2799.458333,2555.375,2066,2440.541667,3197.666667,2640.214286,2065.866667,2321.333333,0.583333333,0.333333333,2683.428571,2131.625,4140.833333,1940.833333,0.474575371,-0.273416615,0.529067758,0.420856788,-0.112087935,-0.430727299,0.604166667,0.5625,0.625,0.583333333,0.625,0.5,0.416666667,0.666666667,24,5,6,4,4,5,0.69,0.773333333,0.6,0.2,0.444444444,0.25,0.133333333,0.6
1997,1,17,blue1,0.95,3512,0.95,3512,0.87,3464,1,3257,0.93,3274,1,4054,0.5625,0.8,1,NA,NA,NA,NA,NA,NA,NA,NA,NA,NA,NA,NA,NA,NA,NA,NA,NA,NA,NA,NA,NA,NA,NA,NA,NA,NA,NA,NA,NA,NA,NA,NA,NA,NA,NA,11,3,0,7,0,1,0.64,0.813333333,0.466666667,0.73,0.5,0.458333333,0.333333333,0.675
1999,1,19,yellow2,0.87,3805,0.87,3805,0.73,4364,1,4302,0.87,3507,0.87,3049,0.307692308,0.65,2,0.819444444,3490.215278,3461.288136,0.791666667,0.958333333,0.75,0.916666667,2967.791667,2711.083333,4226.375,4213.875,3111.421053,2725.608696,4005.444444,4280.045455,0.791666667,0.708333333,2626.578947,4144.823529,2817.375,4004.791667,1.962567182,1.515943849,1.624435603,2.543882198,1.223012033,1.93151641,0.875,0.833333333,0.791666667,0.958333333,0.75,0.916666667,0.208333333,0.291666667,18,7,1,4,4,2,0.5,0.386666667,0.613333333,0.6,0.444444444,0.541666667,0.666666667,0.85
2000,2,19,green2,0.82,3765,0.82,4097,0.73,3952.82,0.73,4433.6,0.8,3709,1,2966,0.39,0.75,0,0.930555556,3850.916667,3744.58209,0.958333333,1,0.958333333,0.958333333,2799.75,2774.208333,5256.833333,4211.041667,2604.869565,2774.208333,5032.130435,4256.347826,0.833333333,0.875,3183,4666,3334.5,4729.166667,3.004255698,2.882013776,2.699085962,3.004255698,2.882013776,2.882013776,0.979166667,0.958333333,0.958333333,1,0.958333333,0.958333333,0.166666667,0.125,14,5,2,5,0,2,0.88,0.84,0.92,0.73,0.722222222,0.5,0.266666667,0.6
2011,2,20,red2,0.77,3594,0.77,3999,0.6,4350,0.73,3730,0.73,3694.82,1,2600.21,0.62,0.8,0,NA,NA,NA,NA,NA,NA,NA,NA,NA,NA,NA,NA,NA,NA,NA,NA,NA,NA,NA,NA,NA,NA,NA,NA,NA,NA,NA,NA,NA,NA,NA,NA,NA,NA,NA,11,4,2,1,1,3,0.81,0.88,0.733333333,NA,0.388888889,NA,NA,NA
2012,2,18,green2,0.93,4665,0.93,5330,0.93,3713.92,0.87,4563.33,0.93,5560,1,4822,0.45,1,5,0.895833333,3355.736111,3343.682171,0.916666667,0.958333333,0.875,0.916666667,2519.833333,2644.416667,4327.25,3987.708333,2389.409091,2662.652174,4414.190476,4077.136364,0.875,0.833333333,2466.52381,4166.75,2464.416667,4190.791667,2.684469925,2.225583127,2.533343507,2.882013776,2.117770946,2.350415693,0.9375,0.895833333,0.916666667,0.958333333,0.875,0.916666667,0.125,0.166666667,11,6,0,3,1,1,0.87,0.906666667,0.826666667,0.73,0.666666667,0.666666667,0.8,0.925
2013,2,19,red1,0.97,3487,0.97,3886,0.93,4327,1,3700,0.93,3073,1,2849.27,NA,NA,NA,0.875,5169.611111,5289.68254,0.958333333,0.75,0.791666667,0.875,3526.583333,3744.916667,7248.5,6034.583333,3600.695652,3801,7767,6185.666667,0.916666667,0.958333333,3923.272727,6586.173913,3903.458333,6559.625,2.437466579,2.699085962,3.114658523,2.057483877,2.543882198,2.882013776,0.854166667,0.833333333,0.958333333,0.75,0.791666667,0.875,0.083333333,0.041666667,14,4,3,4,1,2,0.86,0.76,0.96,0.27,0.388888889,0.833333333,0.6,0.725
2014,2,19,blue2,0.9,3651,0.9,3651,0.8,5305,0.93,3903,1,3404.53,0.87,1990.54,NA,NA,NA,0.902777778,2499.8125,2470,0.916666667,1,0.875,1,2008.375,1570.625,3237.583333,3204.958333,2031.318182,1570.625,3203.761905,3204.958333,0.791666667,0.833333333,1890.157895,2930.25,1910.791667,3066.541667,2.543882198,2.50154211,2.195211929,2.849051933,2.117770946,3.004255698,0.958333333,0.9375,0.916666667,1,0.875,1,0.208333333,0.166666667,13,4,2,2,0,5,NA,NA,NA,0.6,0.555555556,0.5,0.333333333,0.625
2020,1,22,red1,0.62,3536,0.62,3536,0.4,3415,0.6,3385,0.67,3805.8,0.8,3540.17,0.67,0.65,1,NA,NA,NA,NA,NA,NA,NA,NA,NA,NA,NA,NA,NA,NA,NA,NA,NA,NA,NA,NA,NA,NA,NA,NA,NA,NA,NA,NA,NA,NA,NA,NA,NA,NA,NA,10,3,1,3,2,1,0.49,0.36,0.626666667,NA,0.222222222,NA,NA,NA
2027,2,17,yellow1,0.77,4541,0.77,4541,0.6,4455.56,0.87,5081.15,0.8,4202,0.8,4425,0.46,0.75,0,0.791666667,3915.180556,3931.131579,0.791666667,1,0.791666667,0.916666667,3092,2911.75,5216.375,5195.208333,2811.736842,2911.75,5197.052632,5012.954545,0.625,0.625,3521.933333,4199.066667,2750.75,4325,1.576800925,1.373111816,1.130857165,2.355473496,1.130857165,1.701633491,0.895833333,0.854166667,0.791666667,1,0.791666667,0.916666667,0.375,0.375,24,6,4,7,4,3,0.87,0.906666667,0.84,0.47,0.388888889,0.625,0.333333333,0.7
2102,2,21,blue1,0.92,4010,0.92,4178,0.93,5308,0.93,3434,0.93,4110,0.87,3188.58,0.58,0.7,1,0.951388889,3859.083333,3845.540146,1,1,1,1,2555.333333,2978.791667,5044.416667,4551.583333,2555.333333,2978.791667,5044.416667,4551.583333,0.875,0.833333333,3225.380952,4799.15,3131.041667,4893.333333,3.461340719,3.278412904,3.187183512,3.187183512,3.004255698,3.004255698,1,1,1,1,1,1,0.125,0.166666667,12,2,1,6,3,0,0.97,0.933333333,1,0.6,0.611111111,0.625,0.533333333,0.675
2128,2,19,green1,0.95,3182,0.95,3538,0.8,4125.67,1,3647.64,1,2623,1,2331,0.27,0.75,0,0.923611111,2803.229167,2817.045113,1,1,1,0.958333333,1930.458333,1743.583333,3914,3435.416667,1930.458333,1743.583333,3914,3438.956522,0.833333333,0.75,2169.95,3892.166667,2073.958333,3721.958333,3.278412904,2.711323882,3.004255698,3.004255698,2.711323882,2.406154146,1,0.979166667,1,1,1,0.958333333,0.166666667,0.25,17,3,3,5,1,5,0.85,0.88,0.826666667,0.73,0.444444444,0.541666667,0.866666667,0.775
2210,1,18,red2,0.88,3683,0.88,3683,0.8,4157,0.93,3268,0.87,3188,0.93,4119,0.6,0.75,2,NA,NA,NA,NA,NA,NA,NA,NA,NA,NA,NA,NA,NA,NA,NA,NA,NA,NA,NA,NA,NA,NA,NA,NA,NA,NA,NA,NA,NA,NA,NA,NA,NA,NA,NA,21,7,1,8,1,4,0.6,0.666666667,0.533333333,NA,0.444444444,NA,NA,NA
2222,1,31,green1,0.98,5753,0.98,6226,0.93,5183.31,1,6511.33,1,6244,1,5075,0.44,0.8,1,0.958333333,3489.555556,3473.963768,1,1,1,1,2456.625,2358.916667,4751.625,4765.833333,2456.625,2358.916667,4751.625,4765.833333,0.916666667,0.833333333,2424.181818,4104.15,2425.375,4178.958333,3.693985465,3.278412904,3.419828259,3.419828259,3.004255698,3.004255698,1,1,1,1,1,1,0.083333333,0.166666667,23,4,5,6,4,4,0.83,0.733333333,0.92,0.47,0.444444444,0.875,0.8,0.825
2228,2,19,red1,0.88,4938,0.88,4938,0.73,6264,0.8,4287,1,4806.13,1,4395.13,0.69,0.8,8,NA,NA,NA,NA,NA,NA,NA,NA,NA,NA,NA,NA,NA,NA,NA,NA,NA,NA,NA,NA,NA,NA,NA,NA,NA,NA,NA,NA,NA,NA,NA,NA,NA,NA,NA,17,4,1,8,2,2,0.64,0.56,0.72,NA,0.333333333,NA,NA,NA
2230,1,20,yellow2,0.92,4362,0.92,4471,0.87,5093.77,0.93,5023.21,0.93,3703,0.93,3626,0.43,0.7,2,0.895833333,3154.930556,3146.348837,1,1,0.833333333,0.958333333,2595.333333,2179.666667,3764.083333,4219.958333,2595.333333,2179.666667,3932.4,4097.608696,0.833333333,0.75,2612.2,3674.555556,2563.833333,3606.708333,3.278412904,1.932651311,3.004255698,3.004255698,1.641911316,2.406154146,1,0.895833333,1,1,0.833333333,0.958333333,0.166666667,0.25,17,4,1,4,4,4,0.81,0.946666667,0.666666667,0.6,0.666666667,0.416666667,0.4,0.6
2286,1,23,red1,0.73,5624,0.73,5624,0.53,4999,0.73,5764,0.8,6719,0.87,5013,0.181818182,0.55,3,0.645833333,1945.381944,1844.978495,0.875,0.75,0.875,0.791666667,1374.041667,1492.833333,2456.041667,1806,1266.285714,1374.722222,2587.238095,1729.210526,0.291666667,0.291666667,1663.285714,3059.428571,2075,2468.375,0.338624276,0.418899283,0.601827098,0.125967467,0.601827098,0.263695519,0.8125,0.833333333,0.875,0.75,0.875,0.791666667,0.708333333,0.708333333,21,2,4,4,6,5,0.75,0.853333333,0.653333333,0.33,0.222222222,0.333333333,0.066666667,0.6
2298,2,18,yellow1,0.87,2799,0.87,2852,0.67,2607.2,1,3250.87,0.93,2588,0.87,2750,0.22,0.85,0,0.875,2512.993056,2489.793651,0.833333333,1,0.833333333,0.916666667,1727.791667,1760.666667,3346.458333,3244.833333,1704.65,1760.666667,3421.05,3346.909091,0.833333333,0.833333333,1967.4,2798.2,1934.833333,3063.375,2.350415693,2.117770946,1.934843132,3.004255698,1.934843132,2.350415693,0.916666667,0.875,0.833333333,1,0.833333333,0.916666667,0.166666667,0.166666667,13,3,1,6,3,0,0.77,0.853333333,0.68,0.8,0.388888889,0.583333333,0.266666667,0.675
2312,1,23,red1,0.97,3290,0.97,3524,1,3150,0.93,3108,0.93,3521,1,3380.93,0.27,0.7,1,0.875,2814.847222,2773.81746,1,0.958333333,0.958333333,0.916666667,2089,2147.833333,3354.5,3562.416667,2089,2070.130435,3394.869565,3511.5,0.791666667,0.625,2458.947368,3313.133333,2442.375,3292.958333,2.849051933,1.852759908,2.849051933,2.543882198,2.05030376,1.701633491,0.979166667,0.9375,1,0.958333333,0.958333333,0.916666667,0.208333333,0.375,9,4,0,4,0,1,NA,NA,NA,0.67,0.611111111,0.416666667,0.933333333,0.8
2319,1,29,green2,0.92,4579,0.92,4764,0.73,5188.82,1,4923.73,1,4310,0.93,3895,0.5,0.7,3,0.923611111,3690.597222,3654.954887,0.958333333,0.958333333,0.875,0.958333333,2563.5,2513.916667,4731.166667,4621.125,2585.565217,2526.826087,4792.333333,4447.391304,0.875,0.916666667,3192.904762,4479.272727,3189.291667,4524.583333,2.882013776,2.765988254,2.882013776,2.882013776,2.533343507,3.114658523,0.958333333,0.916666667,0.958333333,0.958333333,0.875,0.958333333,0.125,0.083333333,38,10,9,7,3,9,0.65,0.76,0.533333333,0.53,0.5,0.958333333,0.666666667,0.9
2324,1,18,green1,0.83,5573,0.83,5573,0.93,5928,0.8,6401,0.6,4535,1,5429,0.333333333,0.6,0,0.430555556,2651.340278,2591.403226,0.583333333,0.458333333,0.291666667,0.291666667,2233.541667,2663.708333,2942.333333,2448.166667,2218.571429,2767.636364,3155.714286,2188.142857,0.5,0.458333333,2450.75,2940.636364,2398.125,3222.166667,0.05224518,-0.653155738,0.210428394,-0.104633456,-0.653155738,-0.653155738,0.520833333,0.291666667,0.583333333,0.458333333,0.291666667,0.291666667,0.5,0.541666667,NA,NA,NA,NA,NA,NA,0.75,0.826666667,0.68,0.53,0.222222222,0.375,0.266666667,0.625
2378,2,19,blue1,0.92,6450,0.92,6556,0.87,7430,0.93,5902,0.87,5158.15,1,7310.6,0.69,0.65,4,NA,NA,NA,NA,NA,NA,NA,NA,NA,NA,NA,NA,NA,NA,NA,NA,NA,NA,NA,NA,NA,NA,NA,NA,NA,NA,NA,NA,NA,NA,NA,NA,NA,NA,NA,17,4,1,8,3,1,0.82,0.773333333,0.866666667,NA,0.555555556,NA,NA,NA
2424,1,19,red1,0.78,5153,0.78,5153,0.53,4374,0.8,6889,0.87,5313,0.93,4036,0.533333333,0.75,1,0.819444444,3633.881944,3609.076271,0.958333333,0.916666667,0.875,0.875,3177.625,3112.708333,4149.583333,4179.666667,3092.521739,3149.454545,4206.142857,4408.809524,0.666666667,0.625,3297.9375,3451.6,3222.708333,3961,1.964847844,1.468988744,2.162391695,1.813721426,1.468988744,1.468988744,0.9375,0.875,0.958333333,0.916666667,0.875,0.875,0.333333333,0.375,18,4,2,6,1,5,0.72,0.72,0.72,0.47,0.444444444,0.25,0.2,0.5
2456,1,20,blue1,0.78,3049,0.78,3049,0.53,3800,0.93,2899,0.8,2911,0.87,2585,0.214285714,0.7,2,0.951388889,2076.208333,2045.744526,1,1,0.916666667,1,1450.541667,1611.166667,2793.958333,2630.375,1450.541667,1611.166667,2711.181818,2630.375,0.916666667,0.875,1632.454545,2290.333333,1622.833333,2348.375,3.693985465,2.882013776,3.419828259,3.419828259,2.533343507,3.187183512,1,0.958333333,1,1,0.916666667,1,0.083333333,0.125,13,3,2,6,1,1,0.91,0.933333333,0.893333333,0.87,0.722222222,0.416666667,0.466666667,0.7
2464,1,22,green1,0.83,5396,0.83,5396,0.73,5305,0.87,4579,0.87,7178,0.87,4524,NA,NA,NA,NA,NA,NA,NA,NA,NA,NA,NA,NA,NA,NA,NA,NA,NA,NA,NA,NA,NA,NA,NA,NA,NA,NA,NA,NA,NA,NA,NA,NA,NA,NA,NA,NA,NA,NA,23,5,3,5,5,5,0.77,0.813333333,0.733333333,NA,NA,NA,NA,NA
2468,1,21,red1,0.93,5705,0.93,5705,0.8,4657,0.93,6301,1,5839,1,6024,0.461538462,0.65,3,NA,NA,NA,NA,NA,NA,NA,NA,NA,NA,NA,NA,NA,NA,NA,NA,NA,NA,NA,NA,NA,NA,NA,NA,NA,NA,NA,NA,NA,NA,NA,NA,NA,NA,NA,15,4,3,5,1,2,0.85,0.92,0.786666667,NA,0.555555556,NA,NA,NA
2469,1,18,blue1,0.92,3908,0.92,3908,0.87,4587,0.93,3374,0.87,3840,1,3832,0.428571429,0.7,0,0.958333333,2313.819444,2291.057971,1,0.958333333,0.958333333,1,1639.125,1460.375,3228.625,3070.083333,1639.125,1472.26087,3166.391304,3070.083333,0.916666667,0.916666667,1957.818182,2426.545455,1946.458333,2538.25,3.419828259,3.419828259,3.419828259,3.114658523,3.114658523,3.419828259,0.979166667,0.979166667,1,0.958333333,0.958333333,1,0.083333333,0.083333333,18,6,1,4,4,3,0.97,0.986666667,0.946666667,0.93,0.722222222,0.833333333,0.866666667,0.9
2491,1,23,blue2,0.57,2463,0.57,2463,0.33,2915,0.67,2373,0.67,2547,0.6,2016,0.368421053,0.95,3,0.75,2419.333333,2520.648148,0.791666667,0.916666667,0.916666667,0.875,2242.625,2241.791667,2671.416667,2513.833333,2299.052632,2345.227273,2522.318182,2724,0.666666667,0.333333333,2824.5,2383.25,2442.291667,2404.041667,1.485199751,0.827434262,1.242945101,1.813721426,0.952266828,0.719622081,0.854166667,0.895833333,0.791666667,0.916666667,0.916666667,0.875,0.333333333,0.666666667,16,6,1,6,0,3,0.89,0.866666667,0.92,0.4,0.444444444,0.375,0.466666667,0.65
2511,1,64,yellow2,0.6,10174,0.6,10174,0.4,15688,0.67,6727,0.53,10115,0.8,8168,-1,0.15,2,0.583333333,6546.159722,6849.059524,0.5,0.625,0.541666667,0.666666667,5985.083333,6187.375,7424.041667,7552.958333,5814,7068.333333,7925.461538,7568.6875,0.75,0.416666667,6167.888889,6437.6,5936.75,6190.75,0.831800435,0.053718583,0.67448975,0.993129114,-0.105794939,0.220298905,0.5625,0.604166667,0.5,0.625,0.541666667,0.666666667,0.25,0.583333333,20,5,0,10,3,2,NA,NA,NA,0.2,0.111111111,0.208333333,0.4,0.825
2613,2,22,red2,0.83,2417,0.83,2487,0.67,2178,0.93,2899,0.8,2364.67,0.93,2226.79,0.34,0.85,2,NA,NA,NA,NA,NA,NA,NA,NA,NA,NA,NA,NA,NA,NA,NA,NA,NA,NA,NA,NA,NA,NA,NA,NA,NA,NA,NA,NA,NA,NA,NA,NA,NA,NA,NA,19,7,2,4,2,4,NA,NA,NA,NA,0.388888889,NA,NA,NA
2693,1,18,blue2,0.83,6483,0.83,6483,0.67,6346,0.87,7319,0.87,5906,0.93,6360,0.625,0.8,1,0.881944444,3576.131944,3448.92126,0.791666667,1,0.75,1,2621.833333,2469.083333,4759.541667,4432.666667,2439.052632,2469.083333,4656.722222,4432.666667,0.916666667,0.833333333,2818.454545,4010.1,3010.416667,4163.25,2.641155688,2.117770946,2.195211929,3.419828259,1.641911316,3.004255698,0.895833333,0.875,0.791666667,1,0.75,1,0.083333333,0.166666667,19,5,3,4,3,4,0.62,0.733333333,0.506666667,0.73,0.444444444,0.416666667,0.4,0.675
2724,1,39,red2,0.9,4939,0.9,4939,0.73,5351,1,4913,0.93,5224,0.93,4269,0.636363636,0.55,0,0.631944444,1639.895833,1646.725275,0.916666667,0.958333333,0.916666667,0.916666667,1683,1743.458333,1848.333333,1835.416667,1606.181818,1707.434783,1651.409091,1653.954545,0.041666667,0.041666667,276,2251,1285.541667,1443.625,-0.197543852,-0.348670269,-0.348670269,0,-0.348670269,-0.348670269,0.9375,0.916666667,0.916666667,0.958333333,0.916666667,0.916666667,0.958333333,0.958333333,16,5,1,5,3,2,0.19,0.2,0.173333333,0.13,0.222222222,0.333333333,0.266666667,0.775
2726,1,24,red2,0.93,5725,0.93,5725,0.87,6643,0.87,6222,1,5449.67,1,4586.6,0.48,0.7,1,0.527777778,3423.25,3490.986842,0.5,0.666666667,0.333333333,0.541666667,3089.958333,2768.083333,3755.25,4375.541667,3196.5,2940.5,4227.875,4607.230769,0.5,0.625,2617,3652.533333,2546.083333,4004.583333,0.210428394,0.161328679,0,0.430727299,-0.112087935,0.42327282,0.583333333,0.4375,0.5,0.666666667,0.333333333,0.541666667,0.5,0.375,21,4,2,9,5,1,0.81,0.853333333,0.76,0.47,0.388888889,NA,0.666666667,0.775
2783,2,18,yellow2,0.77,3257,0.77,3257,0.6,3277.89,0.73,3392.45,0.8,3444,0.93,2915,0.63,0.55,2,0.8125,2879.236111,2783.25641,0.875,0.958333333,0.791666667,1,2288.708333,2616.166667,2849.25,2373.083333,2300.809524,2499.478261,2576.473684,2373.083333,0.791666667,0.458333333,3492.684211,4324.363636,3483,3665.208333,2.195211929,1.153528105,1.962567182,2.543882198,0.707584346,1.932200676,0.916666667,0.895833333,0.875,0.958333333,0.791666667,1,0.208333333,0.541666667,22,4,2,4,7,5,NA,NA,NA,0.8,0.5,0.333333333,0.266666667,0.6
2858,2,18,red1,0.85,4376,0.85,4665,0.67,5550,0.87,4432,0.87,5047.92,1,2473.07,0.44,0.8,1,NA,NA,NA,NA,NA,NA,NA,NA,NA,NA,NA,NA,NA,NA,NA,NA,NA,NA,NA,NA,NA,NA,NA,NA,NA,NA,NA,NA,NA,NA,NA,NA,NA,NA,NA,20,6,2,8,4,0,0.45,NA,0.453333333,NA,0.611111111,NA,NA,NA
2877,2,18,red1,0.98,6738,0.98,6824,0.93,7064,1,8140,1,8527.6,1,3220.93,1,0.25,0,0.930555556,2693.194444,2711.731343,0.958333333,0.916666667,0.958333333,1,2063.458333,1762.75,3687.708333,3604.291667,2078.782609,1766.863636,3763.826087,3604.291667,0.916666667,0.833333333,2024.727273,2953.7,2087.083333,2953.875,2.917114671,3.004255698,3.114658523,2.765988254,2.699085962,3.004255698,0.9375,0.979166667,0.958333333,0.916666667,0.958333333,1,0.083333333,0.166666667,17,7,3,4,2,1,0.79,0.88,0.693333333,0.47,0.555555556,0.541666667,0.266666667,0.65
2907,2,23,red2,0.78,2392,0.78,2453,0.67,2933,0.8,2437,0.73,2519.27,0.93,1679.77,0.21,0.95,2,0.916666667,3280.625,3195.19697,1,1,0.875,0.958333333,2021.666667,2082.875,4662.458333,4453.541667,2021.666667,2082.875,4548.857143,4462.956522,0.833333333,0.833333333,2387.45,3866.7,2417.958333,4045.25,3.278412904,2.350415693,3.004255698,3.004255698,2.117770946,2.699085962,1,0.916666667,1,1,0.875,0.958333333,0.166666667,0.166666667,17,5,2,4,3,3,NA,NA,NA,0.73,0.333333333,0.458333333,0.533333333,0.675
2996,2,18,yellow2,0.85,4651,0.85,4977,0.6,4811.89,0.93,4164.92,0.87,4481,1,5145,0.67,0.75,1,0.902777778,3300.465278,3216.369231,1,1,0.833333333,0.916666667,2392.375,2678.375,4246.375,3959.625,2392.375,2678.375,4055.2,3840.090909,0.833333333,0.833333333,2797.3,3744.9,2682.75,3843.291667,3.278412904,2.117770946,3.004255698,3.004255698,1.934843132,2.350415693,1,0.875,1,1,0.833333333,0.916666667,0.166666667,0.166666667,18,7,3,4,1,3,0.98,1,0.96,0.47,0.555555556,0.666666667,0.8,0.825
3021,2,22,blue1,0.8,3291,0.8,3291,0.53,3672,0.87,3365,0.93,3195.36,0.87,2932.15,0.73,0.75,3,0.944444444,3220.138889,3185.507353,1,1,0.916666667,1,2417.041667,2114.75,4614.708333,3852.583333,2417.041667,2114.75,4562.545455,3852.583333,0.875,0.875,2618.190476,3649.809524,2565.666667,3756.083333,3.461340719,2.882013776,3.187183512,3.187183512,2.533343507,3.187183512,1,0.958333333,1,1,0.916666667,1,0.125,0.125,12,2,2,4,2,2,0.44,NA,0.44,0.6,0.666666667,0.25,0.266666667,0.65
3057,1,18,blue2,0.93,6589,0.93,6589,0.87,6276,1,6915,0.87,7353.31,1,5811.53,0.77,0.65,1,0.923611111,3517.875,3474.969925,0.958333333,1,0.916666667,1,2852.166667,2430.75,4739.541667,4382.166667,2857.26087,2430.75,4606.272727,4382.166667,0.875,0.791666667,2512,4150.210526,2535.583333,4167.041667,3.187183512,2.543882198,2.882013776,3.187183512,2.195211929,2.849051933,0.979166667,0.958333333,0.958333333,1,0.916666667,1,0.125,0.208333333,14,4,0,8,2,0,0.79,0.773333333,0.8,0.87,0.666666667,0.5,0.6,0.7
3110,1,20,blue2,0.83,6453,0.83,6453,0.8,8644,0.93,5456,0.8,5496,0.8,6214,0.583333333,0.6,2,0.708333333,5959.513889,5890.696078,0.708333333,0.833333333,0.666666667,0.791666667,4271,3841.958333,8701.625,8316.333333,3897.705882,3524.4,8534.625,8339.736842,0.625,0.625,4382.066667,6890.8,4452.083333,6174.083333,1.060233408,0.928933974,0.867161647,1.28606093,0.749366663,1.130857165,0.770833333,0.729166667,0.708333333,0.833333333,0.666666667,0.791666667,0.375,0.375,19,7,1,7,2,2,0.69,0.626666667,0.746666667,0.4,0.388888889,0.541666667,0.466666667,0.75
3193,1,21,blue1,0.92,3637,0.92,3637,0.73,3718,1,3786,1,3292,0.93,3751,0.444444444,0.9,0,0.819444444,3156.180556,2930.220339,0.75,0.875,0.75,0.875,2482.458333,2968.083333,3931.791667,3539.916667,2097.222222,2792.952381,3513.222222,3156.285714,0.875,0.791666667,2584.142857,3451.421053,2546.833333,3468,2.037495939,1.699364361,1.824839131,2.300698761,1.486707552,1.962567182,0.8125,0.8125,0.75,0.875,0.75,0.875,0.125,0.208333333,16,6,2,5,2,1,0.69,0.626666667,0.76,0.6,0.444444444,0.666666667,0.733333333,0.675
3260,2,20,red1,0.97,3750,0.97,3887,0.87,3897,1,4477,1,3568.36,1,3057.73,0.2,0.45,2,0.944444444,4375,4354.860294,0.916666667,1,1,1,3169.958333,3171.291667,5758.083333,5862.458333,3129.590909,3171.291667,5758.083333,5862.458333,0.916666667,0.833333333,3061.272727,5052.9,3063.083333,5225.125,3.114658523,3.278412904,2.765988254,3.419828259,3.004255698,3.004255698,0.958333333,1,0.916666667,1,1,1,0.083333333,0.166666667,22,6,3,5,3,5,0.85,0.813333333,0.893333333,0.53,0.722222222,0.666666667,0.866666667,0.85
3320,2,24,green2,0.82,6909,0.82,7318,0.53,7797.38,0.8,7705.67,0.93,6805,1,5328,0.36,0.85,2,0.416666667,1595.201389,1670.5,0.583333333,0.375,0.375,0.291666667,1598.958333,1640.791667,1453.541667,1341.166667,1728.785714,1957.777778,1550.222222,1924.857143,0.375,0.5,1886.333333,1167,1954.083333,1582.666667,-0.370884544,-0.430727299,-0.10821097,-0.637278728,-0.318639364,-0.548522283,0.479166667,0.333333333,0.583333333,0.375,0.375,0.291666667,0.625,0.5,NA,NA,NA,NA,NA,NA,NA,NA,NA,NA,NA,NA,NA,NA
3322,2,19,yellow1,0.75,4859,0.75,5015,0.53,5990.75,0.8,4647.83,0.8,3930,0.87,4867,NA,NA,NA,NA,NA,NA,NA,NA,NA,NA,NA,NA,NA,NA,NA,NA,NA,NA,NA,NA,NA,NA,NA,NA,NA,NA,NA,NA,NA,NA,NA,NA,NA,NA,NA,NA,NA,NA,17,4,1,5,6,1,0.6,0.653333333,0.546666667,0.53,0.277777778,0.375,0.133333333,0.7
3441,2,20,green1,0.87,5379,0.87,5672,0.73,5798.91,0.87,4960.38,0.87,6396,1,4359,0.35,0.7,3,0.923611111,4674.520833,4552.165414,0.875,1,0.958333333,0.916666667,3987.416667,4163.375,5424.375,5648.541667,3571.047619,4163.375,5265.391304,5498.818182,0.916666667,0.875,3911.181818,4876.238095,3902.416667,4921,2.917114671,2.684469925,2.533343507,3.419828259,2.882013776,2.533343507,0.9375,0.9375,0.875,1,0.958333333,0.916666667,0.083333333,0.125,19,5,3,6,2,3,0.73,0.693333333,0.773333333,0.6,0.5,0.5,0.666666667,0.85
3443,2,23,green1,0.72,5542,0.72,5542,0.47,4485.29,0.67,4815.1,0.73,7087,1,5779,0.25,0.55,5,0.541666667,3601.270833,3646.910256,0.708333333,0.791666667,0.625,0.666666667,3206.333333,2776.666667,4924.833333,3880.125,2997,2812.578947,4669.866667,4432.625,0.333333333,0.125,3201,4497.666667,3246.166667,3573.5,0.243762451,-0.77625397,0.117794983,0.381490502,-0.831710016,-0.719622081,0.75,0.645833333,0.708333333,0.791666667,0.625,0.666666667,0.666666667,0.875,15,2,2,8,2,1,0.2,0.106666667,0.293333333,0.27,0.388888889,0.333333333,0.066666667,0.6
3450,2,19,yellow2,0.8,3593,0.8,3593,0.53,3473.25,0.87,3367.46,0.87,4155,0.93,3377,0.67,0.75,4,0.611111111,2396.506944,2441.079545,0.833333333,0.708333333,0.75,0.583333333,2435.625,2001.166667,2332.083333,2592.041667,2506.35,2094.941176,2392.166667,3017.714286,0.375,0.416666667,1905,2662.2,2378.958333,2639.166667,0.42295468,0.220298905,0.648782202,0.229882919,0.464061356,2.78e-16,0.770833333,0.666666667,0.833333333,0.708333333,0.75,0.583333333,0.625,0.583333333,31,6,7,6,5,7,0.68,0.533333333,0.826666667,0.47,0.166666667,0.583333333,0.266666667,0.55
3456,1,19,green1,0.95,3478,0.95,3632,0.8,3354.27,1,3592.27,1,3671,1,3293,0.54,0.65,1,NA,NA,NA,NA,NA,NA,NA,NA,NA,NA,NA,NA,NA,NA,NA,NA,NA,NA,NA,NA,NA,NA,NA,NA,NA,NA,NA,NA,NA,NA,NA,NA,NA,NA,NA,13,4,2,5,2,0,0.86,0.813333333,0.906666667,NA,0.611111111,0.583333333,0.6,0.7
3595,2,19,yellow1,0.93,3260,0.93,3435,0.8,3864.25,1,3289.93,1,3003,0.93,2881,0.18,0.75,1,0.854166667,4811.659722,4450.04065,0.833333333,0.916666667,0.833333333,0.916666667,3815.958333,3471.583333,5900.291667,5634.833333,3233.25,3179.727273,5418.05,5581.909091,0.791666667,0.833333333,4063.368421,5218.45,4531.041667,5516.25,1.962567182,2.117770946,1.779639368,2.195211929,1.934843132,2.350415693,0.875,0.875,0.833333333,0.916666667,0.833333333,0.916666667,0.208333333,0.166666667,20,4,1,7,4,4,0.79,0.746666667,0.84,0.4,0.5,NA,NA,NA
3627,1,29,green1,0.75,3906,0.75,3906,0.6,5041.44,0.67,4036.2,0.8,3497,0.93,3047,0.39,0.65,2,0.4375,2259.097222,2298.968254,0.541666667,0.291666667,0.291666667,0.333333333,2230.333333,2091.833333,2245.875,2303.416667,1918.153846,2132.428571,2664.142857,2258.375,0.458333333,0.708333333,1996.181818,2723.411765,1894.916667,2788.208333,-0.31506185,0.059745872,-2.78e-16,-0.653155738,0,0.117794983,0.416666667,0.3125,0.541666667,0.291666667,0.291666667,0.333333333,0.541666667,0.291666667,19,7,1,6,5,0,0.69,0.773333333,0.613333333,0.47,0.222222222,0.625,0.466666667,0.7
3663,2,28,green2,0.77,4121,0.77,4263,0.6,4313,0.8,3718.18,0.73,5266,0.93,3188,0.37,0.4,10,0.513888889,2450.069444,2305.72973,0.791666667,0.833333333,0.666666667,0.583333333,2296.541667,1927,1890.708333,3442.625,2331.842105,1932.8,1839.625,3249.285714,0.166666667,0.041666667,2684,2003,3011.916667,2131.625,-0.080275007,-1.413025032,-0.155203765,0,-1.300937097,-1.521236002,0.8125,0.625,0.791666667,0.833333333,0.666666667,0.583333333,0.833333333,0.958333333,14,2,3,3,3,3,0.81,0.653333333,0.96,0.27,0.388888889,0.291666667,0.333333333,0.475
3670,2,24,red2,0.7,3791,0.7,3791,0.4,3407,0.8,4666,0.67,3805.2,0.93,3284.5,0.5,0.4,1,0.944444444,5428.451389,5450.661765,1,0.958333333,1,0.958333333,3612.416667,4202.958333,6620.25,7309.416667,3612.416667,4166.73913,6620.25,7300.565217,0.916666667,0.833333333,4738.363636,6385.7,4561.083333,6264.583333,3.419828259,3.004255698,3.419828259,3.114658523,3.004255698,2.699085962,0.979166667,0.979166667,1,0.958333333,1,0.958333333,0.083333333,0.166666667,15,3,1,7,3,1,0.83,0.906666667,0.746666667,0.47,0.444444444,0.291666667,0.6,0.75
3692,1,22,red1,0.97,3036,0.97,3036,0.93,3798,0.93,3225,1,3002,1,2118,0.333333333,0.6,0,0.875,3299.194444,3209.579365,0.875,0.875,0.875,0.916666667,2487.583333,2097.875,4366,4004.208333,2335.619048,2093.47619,4326.047619,3932.863636,0.875,0.833333333,2622.857143,3947.3,2706.541667,4132.958333,2.300698761,2.225583127,2.300698761,2.300698761,2.117770946,2.350415693,0.875,0.895833333,0.875,0.875,0.875,0.916666667,0.125,0.166666667,15,5,1,5,3,1,0.86,0.906666667,0.813333333,0.73,0.444444444,0.708333333,0.6,0.8
3713,2,19,blue1,0.93,4176,0.93,4176,0.8,4581,1,4482,1,3380.53,0.93,4259.93,0.06,0.7,0,NA,NA,NA,NA,NA,NA,NA,NA,NA,NA,NA,NA,NA,NA,NA,NA,NA,NA,NA,NA,NA,NA,NA,NA,NA,NA,NA,NA,NA,NA,NA,NA,NA,NA,NA,26,8,5,5,2,6,0.89,0.853333333,0.933333333,NA,0.833333333,NA,NA,NA
3720,2,18,red2,0.95,2734,0.95,3010,0.87,2654,1,2803,0.93,2617.92,1,2861.73,0.33,0.75,2,0.888888889,2928.805556,2913.226563,1,0.875,0.875,0.916666667,2127.416667,2137.791667,3714.416667,3672.5,2127.416667,2123.47619,3708.285714,3702.636364,0.833333333,0.833333333,2399.25,3496.25,2405.25,3515.458333,2.50154211,2.225583127,3.004255698,2.117770946,2.117770946,2.350415693,0.9375,0.895833333,1,0.875,0.875,0.916666667,0.166666667,0.166666667,14,3,3,3,3,2,0.73,0.706666667,0.76,0.6,0.555555556,0.625,0.8,0.875
3724,2,18,green2,0.82,4574,0.82,4967,0.67,5924.6,0.8,4481.09,0.8,4965,1,2927,0.59,0.85,1,0.694444444,3786.458333,3569.23,0.708333333,0.916666667,0.541666667,0.916666667,4008.75,3040.833333,4121.166667,4012.75,3495.058824,2973.454545,4083.769231,3754.909091,0.5,0.583333333,3542.166667,3849.142857,3535.375,3999.875,0.887146559,0.820723004,0.548522283,1.382994127,0.31506185,1.593422521,0.8125,0.729166667,0.708333333,0.916666667,0.541666667,0.916666667,0.5,0.416666667,20,7,3,6,3,1,NA,NA,NA,0.53,0.388888889,0.416666667,0.133333333,0.55
3729,1,18,green1,0.6,3223,0.6,3223,0.53,2183,0.47,5227,0.67,3544,0.73,1936,0.466666667,0.75,2,0.861111111,4118.715278,4132.903226,0.875,0.958333333,0.916666667,0.875,3813,2865.75,5091.791667,4995.291667,3955.761905,2824.043478,5161.909091,5160.333333,0.833333333,0.708333333,3156.8,4670.058824,3019.166667,4927.291667,2.350415693,1.806683844,2.117770946,2.699085962,1.93151641,1.698871663,0.916666667,0.895833333,0.875,0.958333333,0.916666667,0.875,0.166666667,0.291666667,26,7,4,6,3,6,0.79,0.973333333,0.6,0.67,0.5,0.375,0.333333333,0.65
3737,2,20,yellow1,0.83,3936,0.83,3936,0.73,4567.82,0.8,3577.42,0.8,3770,1,3829,0.29,0.8,1,0.791666667,2668.416667,2645.798246,0.875,0.875,0.666666667,0.791666667,2475.166667,2362.791667,3257.041667,3011.25,2533.666667,2291.190476,3302.4375,2973.842105,0.916666667,0.625,2183.5,2861.333333,2175.875,2728.375,2.533343507,0.928933974,2.533343507,2.533343507,0.749366663,1.130857165,0.875,0.729166667,0.875,0.875,0.666666667,0.791666667,0.083333333,0.375,20,7,1,8,2,2,0.8,0.8,0.8,0.47,0.444444444,0.416666667,0.133333333,0.575
3812,1,24,red2,0.7,9553,0.7,9553,0.73,9852,0.6,8810,0.73,9509.55,0.73,10040.45,0.8,0.35,0,0.569444444,2303.048611,2183.280488,0.666666667,0.75,0.708333333,0.833333333,2238.083333,2340.208333,2240.541667,1922.125,1582,2364,1924.705882,1821.1,0.166666667,0.291666667,3866.25,3794,2684.708333,2392.625,-0.418899283,0.193071761,-0.536694267,-0.292931816,0,0.418899283,0.708333333,0.770833333,0.666666667,0.75,0.708333333,0.833333333,0.833333333,0.708333333,25,5,5,2,9,4,0.58,0.72,0.44,0.13,0.055555556,0.125,0.066666667,0.425
3822,1,23,red2,0.55,2403,0.55,2403,0.67,1901,0.2,2446,0.67,2429.11,0.67,2835.5,NA,NA,NA,0.604166667,1746.1875,1663.471264,0.75,0.625,0.75,0.708333333,1994.208333,2115.583333,1465.666667,1442.458333,1530.833333,2233.133333,1564.222222,1620.411765,0.416666667,0.375,1201.7,1772.222222,1697.125,1762.083333,0.278348017,0.291655246,0.464061356,0.10821097,0.355850386,0.229882919,0.6875,0.729166667,0.75,0.625,0.75,0.708333333,0.583333333,0.625,26,5,6,4,5,6,0.17,0.266666667,0.08,0.2,0,0.375,0.133333333,0.6
3897,2,37,blue1,0.93,3495,0.93,3730,0.8,4219,1,3134,0.93,3273.43,1,3353.43,0.1,0.85,0,0.916666667,2945.222222,2930.143939,0.958333333,0.958333333,0.875,1,2178.291667,2048.25,3555.25,3480.166667,2157.608696,2003.086957,3585.904762,3480.166667,0.833333333,0.875,2662,3762.619048,2630.541667,3778.833333,2.699085962,2.684469925,2.699085962,2.699085962,2.300698761,3.187183512,0.958333333,0.9375,0.958333333,0.958333333,0.875,1,0.166666667,0.125,16,6,1,4,2,3,0.85,0.8,0.893333333,0.4,0.388888889,0.541666667,0.4,0.725
4012,2,23,yellow2,0.93,3754,0.93,4142,0.87,3426.75,0.87,3888.83,1,4355,1,3344,0.19,0.8,3,0.930555556,2651.513889,2620.529851,0.958333333,1,0.958333333,0.958333333,1860,1920.458333,3365.083333,3772.166667,1879.869565,1920.458333,3430.521739,3759.434783,0.916666667,0.791666667,2188.363636,2542.631579,2168.666667,2822.708333,3.419828259,2.543882198,3.114658523,3.419828259,2.543882198,2.543882198,0.979166667,0.958333333,0.958333333,1,0.958333333,0.958333333,0.083333333,0.208333333,21,5,4,8,4,0,0.86,0.853333333,0.866666667,0.67,0.611111111,0.333333333,0.333333333,0.625
4040,1,18,green1,0.8,2253,0.8,2253,0.73,2002,0.8,2348,0.8,2645,0.87,2015,0.4,0.75,5,NA,NA,NA,NA,NA,NA,NA,NA,NA,NA,NA,NA,NA,NA,NA,NA,NA,NA,NA,NA,NA,NA,NA,NA,NA,NA,NA,NA,NA,NA,NA,NA,NA,NA,NA,21,6,4,4,3,4,0.74,0.72,0.76,NA,0.111111111,NA,NA,NA
4046,2,21,yellow1,0.87,4275,0.87,4275,0.73,4617.55,0.87,5253,0.93,3871,0.93,3358,0.29,0.7,4,0.902777778,3283.027778,3236.523077,0.833333333,1,0.75,1,2317.083333,2254.083333,4305.791667,4210.791667,2368.75,2254.083333,4189.166667,4210.791667,0.916666667,0.916666667,2698.954545,3792.454545,2808.791667,3801.625,2.765988254,2.533343507,2.350415693,3.419828259,2.057483877,3.419828259,0.916666667,0.875,0.833333333,1,0.75,1,0.083333333,0.083333333,24,6,3,9,4,2,0.69,0.813333333,0.56,0.6,0.388888889,0.541666667,0.333333333,0.7
4047,2,21,blue2,0.87,6709,0.87,7632,0.73,5639,0.87,7526,0.93,8054.93,0.93,5616.62,0.31,0.7,4,0.888888889,4422.479167,4352.4375,0.958333333,0.958333333,0.958333333,0.875,3834.916667,3305.458333,5512.791667,5328.666667,3700.782609,3318,5472,5238.52381,0.791666667,0.791666667,3516.052632,4895.263158,3376.208333,5176.833333,2.543882198,2.195211929,2.543882198,2.543882198,2.543882198,1.962567182,0.958333333,0.916666667,0.958333333,0.958333333,0.958333333,0.875,0.208333333,0.208333333,26,6,6,5,5,4,0.85,0.946666667,0.76,0.53,0.444444444,0.416666667,0.333333333,0.6
4150,1,28,green1,0.9,4496,0.9,4496,0.8,4376,0.8,4192,1,5336,1,4082,0.545454545,0.55,6,0.708333333,2497.111111,2353.04902,0.833333333,0.791666667,0.833333333,0.791666667,2342.416667,2746.083333,2424.625,2518,2054.25,2671.263158,2206.75,2430.473684,0.625,0.375,2392.133333,2441.777778,2505.25,2446.291667,1.205785923,0.568507195,1.28606093,1.130857165,0.648782202,0.493578438,0.8125,0.8125,0.833333333,0.791666667,0.833333333,0.791666667,0.375,0.625,12,3,1,6,1,1,0.61,0.533333333,0.693333333,0.47,0.388888889,0.625,0.533333333,0.625
4226,1,18,red2,0.85,2572,0.85,2572,0.8,2771,0.87,2416,0.8,2511,0.93,2592,0.166666667,0.6,0,NA,NA,NA,NA,NA,NA,NA,NA,NA,NA,NA,NA,NA,NA,NA,NA,NA,NA,NA,NA,NA,NA,NA,NA,NA,NA,NA,NA,NA,NA,NA,NA,NA,NA,NA,20,4,5,5,2,4,0.85,0.933333333,0.773333333,0.73,0.722222222,0.458333333,0.733333333,0.825
4234,2,24,blue1,0.85,3913,0.85,4010,0.73,3884,0.87,4007,0.87,4116.62,0.93,3645.46,0.21,0.7,4,0.930555556,4794.222222,4727.761194,0.916666667,1,0.875,1,3941.625,3330.125,6196.125,5903.541667,3927.909091,3330.125,6211.47619,5903.541667,0.916666667,0.875,3735.454545,5375.095238,3700.5,5693.416667,3.114658523,2.684469925,2.765988254,3.419828259,2.300698761,3.187183512,0.958333333,0.9375,0.916666667,1,0.875,1,0.083333333,0.125,12,1,0,6,4,1,0.83,0.88,0.773333333,0.27,0.277777778,0.375,0.2,0.725
4276,2,28,green1,0.85,4753,0.85,4948,0.73,5289.18,0.87,5928.92,0.8,4302,1,3491,0.2,0.75,2,0.736111111,4619.270833,4322.367925,0.625,0.833333333,0.583333333,0.791666667,3907.166667,3398.541667,5842.666667,5583.916667,3046.8,3376,5583,5378.421053,0.833333333,0.75,4031.8,4664.5,3953.333333,5030,1.577716176,1.163266161,1.28606093,1.934843132,0.884918144,1.486707552,0.729166667,0.6875,0.625,0.833333333,0.583333333,0.791666667,0.166666667,0.25,14,3,0,6,4,1,0.83,0.826666667,0.826666667,0.67,0.5,0.416666667,0.866666667,0.875
4279,1,20,green1,0.67,3827,0.67,3926,0.6,4773.67,0.67,2734.11,0.53,4202,0.87,3597,0.6375,0.65,1,NA,NA,NA,NA,NA,NA,NA,NA,NA,NA,NA,NA,NA,NA,NA,NA,NA,NA,NA,NA,NA,NA,NA,NA,NA,NA,NA,NA,NA,NA,NA,NA,NA,NA,NA,NA,NA,NA,NA,NA,NA,0.73,0.746666667,0.72,NA,0.388888889,NA,NA,NA
4281,2,22,red1,0.85,1517,0.85,1550,0.73,1540,0.8,1426,0.93,1973.29,0.93,1130,0.14,0.75,1,NA,NA,NA,NA,NA,NA,NA,NA,NA,NA,NA,NA,NA,NA,NA,NA,NA,NA,NA,NA,NA,NA,NA,NA,NA,NA,NA,NA,NA,NA,NA,NA,NA,NA,NA,14,6,1,3,2,2,0.76,0.733333333,0.786666667,NA,0.611111111,NA,NA,NA
4337,1,19,red2,0.88,4613,0.88,4613,0.87,5199,0.87,5010,0.87,4514,0.93,3732,0.5625,0.8,1,0.826388889,3638.652778,3529.638655,0.833333333,0.958333333,0.833333333,0.666666667,2966.916667,2786.875,4320.333333,4538.916667,2878.8,2767.565217,4266.35,4399.25,0.833333333,0.833333333,3049.45,4104.65,3031.625,4187.25,2.225583127,1.641911316,1.934843132,2.699085962,1.934843132,1.398148865,0.895833333,0.75,0.833333333,0.958333333,0.833333333,0.666666667,0.166666667,0.166666667,13,2,0,8,1,2,0.79,0.84,0.746666667,0.8,0.333333333,0.666666667,0.533333333,0.8
4425,2,22,red1,0.82,5394,0.82,5639,0.67,5664,0.87,5968,0.8,5192.33,0.93,4753.38,0.15,0.7,1,0.868055556,5089.444444,4974.664,0.875,0.958333333,0.916666667,1,3996,3542.875,6257.458333,5701.458333,3852,3291.956522,6281.545455,5701.458333,0.791666667,0.666666667,4824.210526,6158.5625,4820.708333,6218.166667,2.195211929,2.162391695,1.962567182,2.543882198,1.813721426,2.467561431,0.916666667,0.958333333,0.875,0.958333333,0.916666667,1,0.208333333,0.333333333,12,3,1,6,1,1,0.74,0.693333333,0.786666667,0.47,0.444444444,0.583333333,0.266666667,0.75
4494,1,19,blue1,0.8,2321,0.8,2321,0.8,2354,0.73,2351,0.8,2343.33,0.87,2236.08,0.5,0.75,0,0.9375,2725.618056,2735.155556,1,1,0.958333333,1,1937.583333,1955.25,3695.666667,3791.583333,1937.583333,1955.25,3766.782609,3791.583333,0.791666667,0.875,1951.736842,2909.571429,1971.208333,3002.416667,3.12320914,3.187183512,2.849051933,2.849051933,2.882013776,3.187183512,1,0.979166667,1,1,0.958333333,1,0.208333333,0.125,16,6,3,5,1,1,0.63,0.706666667,0.546666667,0.87,0.555555556,0.75,0.733333333,0.775
4601,1,19,blue1,0.87,2744,0.87,2744,0.67,3009,0.93,3180,0.93,2213.14,0.93,2574.71,0.39,0.65,0,0.868055556,3347.618056,3366.992,0.875,0.958333333,0.791666667,0.833333333,2667.666667,2784.25,4008.583333,4381.125,2591.619048,2747.043478,4231.473684,4559.95,0.916666667,0.833333333,2763.136364,3544.1,2745.416667,3498.666667,2.765988254,1.854568125,2.533343507,3.114658523,1.779639368,1.934843132,0.916666667,0.8125,0.875,0.958333333,0.791666667,0.833333333,0.083333333,0.166666667,19,5,1,8,4,1,0.79,0.8,0.773333333,0.4,0.444444444,0.375,0.266666667,0.575
4669,2,46,red1,0.83,6926,0.83,7076,0.8,6306,1,6958,0.8,6487.25,0.73,7952.64,-0.04,0.5,1,0.638888889,4171.097222,4021.293478,0.75,0.75,0.583333333,0.458333333,3031.291667,3097.916667,5055,5193.291667,2879.055556,3429.833333,5031,4946.272727,0.666666667,0.625,3807.5625,4709,3603.541667,5045.541667,1.105217049,0.370884544,1.105217049,1.105217049,0.529067758,0.214005908,0.75,0.520833333,0.75,0.75,0.583333333,0.458333333,0.333333333,0.375,13,3,1,3,5,1,0.89,0.893333333,0.893333333,0.4,0.333333333,0.458333333,0.333333333,0.875
4693,2,20,yellow1,0.82,4947,0.82,5034,0.67,5708.2,0.8,6267.58,0.87,3099,0.93,4712,0.42,0.8,0,0.875,4032.284722,4000.531746,0.791666667,1,0.708333333,1,3019.166667,3157.458333,5041.791667,5773.375,2773.894737,3157.458333,5357.705882,5773.375,0.875,0.875,2978.142857,3971.47619,3041.458333,4160.458333,2.408510941,2.204821832,1.962567182,3.187183512,1.698871663,3.187183512,0.895833333,0.854166667,0.791666667,1,0.708333333,1,0.125,0.125,18,7,2,2,4,3,0.81,0.826666667,0.786666667,0.53,0.444444444,0.458333333,0.2,0.6
4724,1,33,yellow1,0.88,5348,0.88,5348,0.8,4941,0.87,5708,0.87,6530,1,4215,0.230769231,0.65,5,0.875,3332.951389,3373.746032,0.958333333,0.916666667,0.958333333,1,2644.625,2815.291667,3802.5,4029.625,2598.173913,2804.863636,3815.347826,4029.625,0.708333333,0.708333333,2753.647059,4255.941176,2729.125,3976.541667,2.082642827,2.585356414,2.280186679,1.93151641,2.280186679,2.585356414,0.9375,0.979166667,0.958333333,0.916666667,0.958333333,1,0.291666667,0.291666667,10,2,1,5,1,1,0.86,0.826666667,0.893333333,0.33,0.277777778,0.708333333,0.733333333,0.85
4756,2,19,blue1,0.82,3998,0.82,4089,0.6,5282,0.93,3262,0.8,3481.5,0.93,3968.07,0.74,0.85,2,0.819444444,4067.319444,3880.355932,0.958333333,0.875,0.75,0.708333333,3311.875,3438.5,4807.75,5156.041667,3234.130435,3092.857143,4774,4954.411765,0.875,0.75,3545.857143,4107.055556,3468.916667,4220.833333,2.533343507,1.28478436,2.882013776,2.300698761,1.3489795,1.223012033,0.916666667,0.729166667,0.958333333,0.875,0.75,0.708333333,0.125,0.25,21,6,4,6,2,3,0.71,0.693333333,0.72,0.53,0.5,0.541666667,0.333333333,0.575
4807,2,21,red1,0.95,4230,0.95,4305,0.93,4274,0.87,4660,1,3539.5,1,4445.8,0.46,0.7,3,0.930555556,3155.201389,3140.992537,1,1,0.958333333,0.916666667,2495.666667,2354.041667,4006.416667,4367.5,2495.666667,2354.041667,3979.956522,4395.909091,0.875,0.833333333,2178.047619,3525.6,2301.875,3405.708333,3.461340719,2.50154211,3.187183512,3.187183512,2.699085962,2.350415693,1,0.9375,1,1,0.958333333,0.916666667,0.125,0.166666667,24,6,4,5,2,7,0.83,0.813333333,0.84,0.73,0.5,0.5,0.733333333,0.85
4812,2,28,green2,0.62,1598,0.62,1598,0.33,1705.6,0.73,1572.82,0.47,1512,0.93,1601,0.26,0.75,4,0.638888889,2906.694444,2874.641304,0.708333333,0.708333333,0.75,0.875,2854.916667,2739.75,2769.291667,2943.75,2864.941176,2738.294118,2697.944444,2992.238095,0.416666667,0.375,2778.6,3336.222222,3176.958333,2955.5,0.338093888,0.568507195,0.338093888,0.338093888,0.355850386,0.831710016,0.708333333,0.8125,0.708333333,0.708333333,0.75,0.875,0.583333333,0.625,17,7,0,6,1,3,0.85,0.786666667,0.906666667,0.33,0.333333333,0.25,0.133333333,0.675
4813,2,19,yellow2,0.9,4210,0.9,4618,0.73,4539.5,1,4384.53,0.93,3828,0.93,4089,0.37,0.8,0,0.881944444,3103.166667,3021.76378,0.958333333,0.958333333,0.791666667,0.875,2408.375,2166,3903.75,4038.416667,2362.826087,2166.782609,3805.526316,4048.857143,0.875,0.833333333,2614.142857,3367.75,2621.416667,3481.041667,2.882013776,1.934843132,2.882013776,2.882013776,1.779639368,2.117770946,0.958333333,0.833333333,0.958333333,0.958333333,0.791666667,0.875,0.125,0.166666667,24,7,4,5,4,4,0.49,0.466666667,0.52,0.53,0.666666667,0.666666667,0.533333333,0.7
4891,2,22,green2,0.82,5012,0.82,5093,0.6,6069.67,0.87,5119.69,0.8,5199,1,3659,NA,NA,NA,0.805555556,8737.694444,8592.5,0.75,0.958333333,0.75,0.958333333,7114.416667,5580.416667,11594.29167,9658.375,7318.833333,5651.130435,12005.38889,9395.130435,0.75,0.666666667,8131.611111,9778.8125,8705.541667,9773.125,1.728962202,1.485199751,1.3489795,2.406154146,1.105217049,2.162391695,0.854166667,0.854166667,0.75,0.958333333,0.75,0.958333333,0.25,0.333333333,NA,NA,NA,NA,NA,NA,0.49,0.466666667,0.52,0.47,0.277777778,0.25,0.266666667,0.6
4906,2,21,red2,0.87,5227,0.87,5502,0.87,7693,0.87,5071,0.8,4321.55,0.93,3821.62,0.56,0.9,0,0.638888889,4629.833333,4633.858696,0.708333333,0.916666667,0.75,0.833333333,3924.916667,5415.875,4346.708333,5077.666667,3879,5092.5,4312.944444,4898.6,0.333333333,0.291666667,5725.875,3846.428571,4602.708333,4411.125,0.45641926,0.263695519,0.117794983,0.952266828,0.125967467,0.418899283,0.8125,0.791666667,0.708333333,0.916666667,0.75,0.833333333,0.666666667,0.708333333,NA,NA,NA,NA,NA,NA,0.68,0.68,NA,0.47,0.444444444,0.375,0.333333333,0.65
4991,2,19,yellow1,0.87,3621,0.87,3735,0.6,4831.44,1,3376.07,0.93,2988,0.93,3290,0.29,0.7,2,0.888888889,3013.520833,3031.796875,0.833333333,0.916666667,0.875,1,2259.416667,2016.708333,4221.625,3800.916667,2341.75,2042.454545,4297.619048,3800.916667,0.875,0.833333333,2305.52381,3320.65,2353.875,3428.583333,2.300698761,2.50154211,2.117770946,2.533343507,2.117770946,3.004255698,0.875,0.9375,0.833333333,0.916666667,0.875,1,0.125,0.166666667,14,5,2,5,1,1,0.92,0.906666667,0.933333333,0.53,0.722222222,0.625,0.666666667,0.875
5068,2,18,blue2,0.93,8341,0.93,9175,0.87,9662,0.93,6610,0.93,7685.71,1,9405,NA,NA,NA,0.736111111,3904.548611,3609.018868,0.708333333,1,0.75,1,3194.291667,3534.125,4739.333333,4146.708333,2883.882353,3534.125,4473.166667,4146.708333,0.5,0.458333333,2404.75,3619.636364,3446.916667,4365.916667,1.054472452,1.045715925,0.548522283,2.036834132,0.569856295,1.932200676,0.854166667,0.875,0.708333333,1,0.75,1,0.5,0.541666667,15,3,1,7,1,3,0.81,0.906666667,0.72,0.4,0.611111111,0.375,0.466666667,0.7
5212,2,17,yellow1,0.82,3912,0.82,3912,0.47,4380.57,0.87,3482.23,1,4002,0.93,3783,0.57,0.7,11,0.611111111,9108.784722,9254.909091,0.666666667,0.541666667,0.708333333,0.666666667,8178.791667,7032.333333,10242.54167,11247.16667,7966.5,6894.538462,10844.88235,12420.0625,0.625,0.458333333,8194.2,8303.818182,8813.916667,9137.958333,0.582786341,0.384142956,0.749366663,0.42327282,0.443888827,0.326093844,0.604166667,0.6875,0.666666667,0.541666667,0.708333333,0.666666667,0.375,0.541666667,21,6,3,7,1,4,0.7,0.72,0.68,0.13,0.333333333,0.416666667,0.266666667,0.625
5217,2,20,yellow1,0.9,3043,0.9,3157,0.87,3442,1,3162.73,0.8,2723,0.93,2843,0.2,0.75,2,0.923611111,3881.305556,3707.263158,0.916666667,1,0.875,1,2924.25,2651.625,4794.833333,4297.625,2862.363636,2651.625,4636.47619,4297.625,0.916666667,0.833333333,3300.045455,4667.25,3658.708333,4960.791667,3.114658523,2.50154211,2.765988254,3.419828259,2.117770946,3.004255698,0.958333333,0.9375,0.916666667,1,0.875,1,0.083333333,0.166666667,9,3,0,4,2,0,0.81,0.853333333,0.773333333,0.67,0.5,0.541666667,0.8,0.825
5227,1,18,NA,NA,NA,NA,NA,NA,NA,NA,NA,NA,NA,NA,NA,0.666666667,0.75,0,0.916666667,4888.604167,4713.075758,1,1,0.916666667,0.875,3116.625,3266.208333,6756.458333,6529.083333,3116.625,3266.208333,6673.818182,6549.952381,0.833333333,0.875,3307.75,5638.571429,3761.833333,5901.416667,3.278412904,2.408510941,3.004255698,3.004255698,2.533343507,2.300698761,1,0.895833333,1,1,0.916666667,0.875,0.166666667,0.125,15,4,2,7,2,0,0.96,0.92,1,0.87,0.5,0.75,0.6,0.775
5229,2,18,blue2,0.87,7744,0.87,8937,0.67,10262,0.87,8629,1,6762.07,0.93,5323.38,0.46,0.75,11,0.826388889,4631.4375,4459.470588,0.791666667,0.833333333,0.75,0.916666667,3463.875,3919.541667,5494.375,5667.875,3368.947368,3412.6,5413,5844.318182,0.875,0.791666667,3825.047619,4846.315789,4137.208333,5105.75,2.037495939,1.779639368,1.962567182,2.117770946,1.486707552,2.195211929,0.8125,0.833333333,0.791666667,0.833333333,0.75,0.916666667,0.125,0.208333333,14,6,0,5,1,2,0.6,0.626666667,0.573333333,0.6,0.333333333,0.375,0.466666667,0.625
5287,1,23,NA,NA,NA,NA,NA,NA,NA,NA,NA,NA,NA,NA,NA,0.461538462,0.65,1,0.833333333,2986.548611,2855.416667,0.875,1,0.916666667,0.875,2527.291667,2288.625,3580.166667,3597.25,2359.285714,2288.625,3558.181818,3472,0.791666667,0.541666667,2423.894737,3148.615385,2572.375,3353.583333,2.346338346,1.362795017,1.962567182,2.849051933,1.487627583,1.254982836,0.9375,0.895833333,0.875,1,0.916666667,0.875,0.208333333,0.458333333,16,4,1,6,4,1,0.83,0.92,0.733333333,0.67,0.611111111,0.583333333,0.733333333,0.75
5366,2,22,yellow1,0.67,5270,0.67,5503,0.67,5971.5,0.47,4930.57,0.67,5467,0.87,4709,NA,NA,NA,0.840277778,4569.201389,4526.809917,0.791666667,0.958333333,0.833333333,0.958333333,3975.916667,3722.541667,5709.416667,5141.166667,3791.105263,3743.521739,5716.25,5150.086957,0.791666667,0.708333333,3727.210526,5059.882353,4036.708333,4829.458333,1.962567182,1.806683844,1.624435603,2.543882198,1.515943849,2.280186679,0.875,0.895833333,0.791666667,0.958333333,0.833333333,0.958333333,0.208333333,0.291666667,24,5,4,5,6,4,0.81,0.826666667,0.786666667,0.33,0.388888889,0.333333333,NA,0.5
5423,1,35,green1,0.92,5147,0.92,5239,0.87,6088.23,0.8,5294.5,1,5557,1,3649,0.7,0.6,2,0.708333333,4793.180556,4761.911765,0.666666667,0.791666667,0.791666667,0.791666667,4263.208333,4698.916667,5229.541667,5549.75,4020.875,4517.842105,5107.473684,5435.684211,0.541666667,0.666666667,4573.461538,4735.4375,4424.375,4593.291667,0.714928066,1.242945101,0.535360755,0.916851257,1.242945101,1.242945101,0.729166667,0.791666667,0.666666667,0.791666667,0.791666667,0.791666667,0.458333333,0.333333333,6,1,0,2,2,1,0.33,0.333333333,0.32,0.53,0.388888889,0.5,0.666666667,0.725
5462,2,18,blue1,0.6,5158,0.6,5158,0.53,5934,0.67,5112,0.6,5147.56,0.6,4440.67,0.5,0.7,0,0.590277778,2604.645833,2878.470588,0.791666667,0.833333333,0.708333333,0.333333333,2009,1832.833333,3599.375,2356.625,2252.315789,2055.15,3967.411765,3740.625,0.5,0.375,3306.5,2636,2943.958333,2886.083333,0.887146559,-0.266394184,0.812217801,0.967421566,0.229882919,-0.749366663,0.8125,0.520833333,0.791666667,0.833333333,0.708333333,0.333333333,0.5,0.625,17,3,4,3,3,4,0.54,0.586666667,0.493333333,0.27,0.388888889,0.458333333,0.133333333,0.35
5494,1,18,yellow1,0.63,2317,0.63,2317,0.4,2660,0.67,2335,0.6,2133,0.87,2142,0.6,0.75,4,0.666666667,2077.1875,2080.583333,0.708333333,0.916666667,0.791666667,0.833333333,2219.5,2012.583333,2125.666667,1985.083333,2142.294118,1956.227273,2041.473684,1943.65,0.458333333,0.291666667,2288.454545,2492.285714,1998.75,2121.541667,0.782513103,0.338624276,0.443888827,1.278360671,0.263695519,0.418899283,0.8125,0.8125,0.708333333,0.916666667,0.791666667,0.833333333,0.541666667,0.708333333,16,6,4,1,2,3,0.73,0.76,0.706666667,0.33,0.222222222,0.458333333,0.4,0.625
5506,2,22,blue2,0.88,5363,0.88,5532,0.6,7403,1,4523,1,4540.47,0.93,4985.85,0.5,0.8,1,0.847222222,4117.715278,4099.229508,0.916666667,0.875,0.875,0.75,2956.875,3096.708333,4932.333333,5088.708333,2783.909091,2940.333333,4959.666667,5451.5,0.791666667,0.875,3923.947368,4775.142857,3752.958333,4878.708333,2.070379363,2.037495939,2.195211929,1.962567182,2.300698761,1.824839131,0.895833333,0.8125,0.916666667,0.875,0.875,0.75,0.208333333,0.125,14,4,2,3,2,3,0.72,0.733333333,0.706666667,0.6,0.722222222,0.375,0.533333333,0.75
5515,2,21,yellow2,0.52,1677,0.52,1677,0.4,1493.17,0.53,1479.13,0.6,1781,0.53,1954,NA,NA,NA,NA,NA,NA,NA,NA,NA,NA,NA,NA,NA,NA,NA,NA,NA,NA,NA,NA,NA,NA,NA,NA,NA,NA,NA,NA,NA,NA,NA,NA,NA,NA,NA,NA,NA,NA,21,6,3,3,3,6,0.35,0.52,0.173333333,NA,0.166666667,NA,NA,NA
5529,2,20,blue1,0.92,2746,0.92,2879,0.8,2608,1,2629,0.93,2760.43,0.93,2984.71,NA,NA,NA,0.951388889,2236.479167,2194.087591,1,1,1,1,1686.333333,1734.041667,3090.958333,3083.833333,1686.333333,1734.041667,3090.958333,3083.833333,0.833333333,0.875,1555.85,1866.142857,1695.875,2127.833333,3.278412904,3.461340719,3.004255698,3.004255698,3.187183512,3.187183512,1,1,1,1,1,1,0.166666667,0.125,13,3,1,4,4,1,0.98,0.986666667,0.973333333,0.67,0.611111111,0.416666667,0.666666667,0.85
5566,2,19,blue2,0.65,2722,0.65,2722,0.33,2588,0.8,2572,0.67,3240,0.8,2489.25,0.6,0.85,2,0.847222222,4262.625,4168.147541,0.75,1,0.666666667,0.875,3096.125,3227.791667,5322.916667,5505.958333,2949.555556,3227.791667,5755,5281.761905,0.875,0.916666667,3522.857143,4589.909091,3458.083333,4964.875,2.300698761,2.124588171,1.824839131,3.187183512,1.813721426,2.533343507,0.875,0.770833333,0.75,1,0.666666667,0.875,0.125,0.083333333,13,4,2,4,1,2,0.73,0.613333333,0.853333333,0.53,0.388888889,0.5,0.466666667,0.55
5683,2,22,yellow2,0.93,6330,0.93,6330,0.87,7945.69,1,5407.33,1,6125,0.87,5841,0.52,0.65,1,NA,NA,NA,NA,NA,NA,NA,NA,NA,NA,NA,NA,NA,NA,NA,NA,NA,NA,NA,NA,NA,NA,NA,NA,NA,NA,NA,NA,NA,NA,NA,NA,NA,NA,NA,14,3,0,6,3,2,0.44,0.48,0.4,NA,0.444444444,NA,NA,NA
5795,1,18,yellow1,0.73,2411,0.73,2411,0.47,2311,0.8,2516,0.67,2468,1,2347,0.363636364,0.55,8,0.708333333,3128.923611,2993.264706,0.708333333,1,0.583333333,0.833333333,2842.041667,2446.708333,3369,3477.833333,2739.411765,2446.708333,3271,3504.85,0.583333333,0.541666667,3041.357143,3196.307692,3015.625,3622.333333,1.264900846,0.653155738,0.758950677,2.247262526,0.31506185,1.072055022,0.854166667,0.708333333,0.708333333,1,0.583333333,0.833333333,0.416666667,0.458333333,12,4,1,4,3,0,0.57,0.68,0.453333333,0.53,0.055555556,0.458333333,0.066666667,0.65
5897,1,17,blue2,0.8,4323,0.8,4323,0.6,4294,0.93,4313,0.87,4679.08,0.8,4006.17,0.45,0.65,1,0.659722222,4670.125,4748.389474,0.833333333,0.791666667,0.75,0.875,4656.291667,4368.541667,4707.208333,4243.625,4879.45,4298.947368,4920.5,4444.095238,0.5,0.208333333,5230.75,5432.8,4747.916667,5297.166667,0.887146559,0.074928758,0.967421566,0.812217801,-0.137728051,0.338131579,0.8125,0.8125,0.833333333,0.791666667,0.75,0.875,0.5,0.791666667,14,2,1,6,4,1,0.27,0.32,0.21333333300000001,0.47,0.555555556,0.375,0.066666667,0.6
5989,2,19,green2,0.87,7044,0.87,7044,0.73,8094,0.87,6565.78,0.87,7060,1,6454,0.14,0.65,2,0.722222222,2486.666667,2549.894231,0.75,0.708333333,0.875,0.875,2048.166667,2036.291667,2882.416667,2863.916667,2003.111111,2240.352941,2917.619048,2836.190476,0.625,0.5,2609,2590.166667,2452.583333,2636.625,0.928933974,1.15034938,0.993129114,0.867161647,1.15034938,1.15034938,0.729166667,0.875,0.75,0.708333333,0.875,0.875,0.375,0.5,16,4,0,6,5,1,0.99,1,0.973333333,0.53,0.5,0.416666667,0.2,0.7
5995,2,18,green2,0.85,2878,0.85,3441,0.87,2995.5,0.73,3081.2,0.8,3385,1,2049,0.03,0.75,0,0.951388889,3343.972222,3338.430657,0.958333333,1,0.958333333,0.958333333,2473.791667,2018.791667,4716.166667,4105.166667,2443.782609,2018.791667,4726.347826,4129.130435,0.875,0.958333333,2698.380952,4015.869565,2732.25,4017.666667,3.187183512,3.463328792,2.882013776,3.187183512,3.463328792,3.463328792,0.979166667,0.958333333,0.958333333,1,0.958333333,0.958333333,0.125,0.041666667,18,8,2,5,3,0,0.74,0.733333333,0.746666667,0.6,0.666666667,0.708333333,0.466666667,0.825
6041,2,21,red1,0.77,2112,0.77,2148,0.67,2237,0.73,2481,0.73,1861.55,0.93,1869.15,NA,NA,NA,0.805555556,2996.888889,2893.732759,0.958333333,1,0.875,0.875,2385.041667,2393.208333,3655.375,3823.375,2403.347826,2393.208333,3637.809524,3803.380952,0.666666667,0.458333333,2186.875,2882.181818,2371.708333,3352.625,2.467561431,1.045715925,2.162391695,2.467561431,1.045715925,1.045715925,0.979166667,0.875,0.958333333,1,0.875,0.875,0.333333333,0.541666667,NA,NA,NA,NA,NA,NA,0.76,0.906666667,0.613333333,0.27,0.277777778,0.5,0.4,0.75
6045,2,18,red2,0.82,4282,0.82,4282,0.87,4304,0.73,4636,0.73,4678.36,0.93,3511.93,0.93,0.65,3,0.909722222,3224.673611,3189.59542,1,1,0.916666667,1,2563.75,2171.166667,4264.208333,3549.833333,2563.75,2171.166667,4220.772727,3549.833333,0.833333333,0.708333333,2714.3,4227.058824,2641.791667,4157.291667,3.278412904,2.280186679,3.004255698,3.004255698,1.93151641,2.585356414,1,0.958333333,1,1,0.916666667,1,0.166666667,0.291666667,11,4,1,4,1,1,0.77,0.906666667,0.64,0.6,0.5,0.291666667,0.066666667,0.575
6140,1,22,red2,0.65,2182,0.65,2182,0.6,2734,0.73,2035,0.6,2007.44,0.67,1951.1,0.25,0.5,0,NA,NA,NA,NA,NA,NA,NA,NA,NA,NA,NA,NA,NA,NA,NA,NA,NA,NA,NA,NA,NA,NA,NA,NA,NA,NA,NA,NA,NA,NA,NA,NA,NA,NA,NA,25,6,5,6,4,4,0.59,0.84,0.346666667,NA,0.166666667,NA,NA,NA
6141,1,18,yellow2,0.88,3266,0.88,3266,0.87,3788.69,0.87,3762.62,0.87,2742,0.93,2769,0.21,0.7,0,0.861111111,2997.5625,2916.201613,0.833333333,0.875,0.791666667,0.875,2099.375,2073.125,3846.375,4129.5,1950.75,1911.904762,3947.315789,4210.666667,0.958333333,0.833333333,2453.478261,3129.55,2492.541667,3344.458333,2.786136848,1.934843132,2.699085962,2.882013776,1.779639368,2.117770946,0.854166667,0.833333333,0.833333333,0.875,0.791666667,0.875,0.041666667,0.166666667,14,3,2,8,1,0,0.86,0.933333333,0.786666667,0.87,0.666666667,0.791666667,0.866666667,0.85
6290,2,22,red1,0.8,6096,0.8,6096,0.8,6461,0.8,4954,0.73,7256.36,0.87,5714.23,0.77,0.65,1,0.555555556,4142.722222,4048.05,0.708333333,0.708333333,0.541666667,0.416666667,3580.708333,3837.791667,5638.5,4105.791667,3108.117647,3765.352941,5940.230769,3592.6,0.375,0.583333333,4023.222222,4116.928571,3509.041667,4184.5,0.229882919,0.158183214,0.229882919,0.229882919,0.31506185,0,0.708333333,0.479166667,0.708333333,0.708333333,0.541666667,0.416666667,0.625,0.416666667,23,6,3,5,4,5,0.19,0.24,0.146666667,0.27,0.388888889,0.375,0.266666667,0.65
6591,1,18,yellow1,0.88,5110,0.88,5226,0.67,4719.7,1,5025.2,0.93,5816,0.93,4879,0.3,0.85,1,0.868055556,4317.243056,4245.088,0.958333333,0.916666667,0.958333333,0.791666667,3227.416667,3528.625,5619.166667,5431.333333,3266.434783,3399.863636,5681.086957,5255.473684,0.791666667,0.791666667,3014.157895,4890.684211,3352.875,4744.041667,2.346338346,1.962567182,2.543882198,2.195211929,2.543882198,1.624435603,0.9375,0.875,0.958333333,0.916666667,0.958333333,0.791666667,0.208333333,0.208333333,18,4,0,8,5,1,0.88,0.88,0.88,0.53,0.666666667,0.458333333,0.333333333,0.55
6866,2,21,green2,0.88,4108,0.88,4209,0.87,5672.62,0.8,3474.42,0.87,3961,1,3323,0.72,0.75,3,0.659722222,3889.979167,3911.789474,0.833333333,0.791666667,0.541666667,0.916666667,3244,3072.75,5028.375,4578.333333,3341,2987.263158,5253.923077,4402.5,0.458333333,0.416666667,3312.181818,4645.2,3232.291667,4184.125,0.782513103,0.399866216,0.86278811,0.707584346,-0.105794939,1.172565733,0.8125,0.729166667,0.833333333,0.791666667,0.541666667,0.916666667,0.541666667,0.583333333,28,7,5,5,3,8,0.57,0.666666667,0.48,0.47,0.5,0.5,0.4,0.675
6957,2,27,yellow1,0.88,2185,0.88,2432,0.73,2034.6,0.93,2081.5,0.87,2519,1,2107,0.35,0.85,0,NA,NA,NA,NA,NA,NA,NA,NA,NA,NA,NA,NA,NA,NA,NA,NA,NA,NA,NA,NA,NA,NA,NA,NA,NA,NA,NA,NA,NA,NA,NA,NA,NA,NA,NA,11,3,1,6,1,0,0.85,0.96,0.746666667,NA,0.722222222,NA,NA,NA
6969,1,18,green2,0.95,3836,0.95,3836,0.87,4086,1,4789,1,3761,0.93,2710,0.461538462,0.65,0,NA,NA,NA,NA,NA,NA,NA,NA,NA,NA,NA,NA,NA,NA,NA,NA,NA,NA,NA,NA,NA,NA,NA,NA,NA,NA,NA,NA,NA,NA,NA,NA,NA,NA,NA,26,8,6,5,3,4,0.93,0.933333333,0.92,NA,0.777777778,NA,NA,NA
6994,1,19,yellow2,0.78,3448,0.78,3570,0.47,2642.29,0.93,3401.86,0.73,4400,1,3347,0.43,0.7,3,NA,NA,NA,NA,NA,NA,NA,NA,NA,NA,NA,NA,NA,NA,NA,NA,NA,NA,NA,NA,NA,NA,NA,NA,NA,NA,NA,NA,NA,NA,NA,NA,NA,NA,NA,NA,NA,NA,NA,NA,NA,0.83,0.786666667,0.88,NA,0.555555556,NA,NA,NA
7125,1,19,red1,0.95,3053,0.95,3373,0.93,3273,0.93,3276,0.93,3252.54,1,2411.27,0.3,0.85,0,0.9375,2508.888889,2479.822222,1,0.958333333,0.958333333,0.958333333,1804.958333,1777.25,3205.5,3038.041667,1804.958333,1744.086957,3185.434783,2958.565217,0.916666667,0.833333333,2001.590909,3299.8,1968.25,3259.333333,3.419828259,2.699085962,3.419828259,3.114658523,2.699085962,2.699085962,0.979166667,0.958333333,1,0.958333333,0.958333333,0.958333333,0.083333333,0.166666667,13,2,1,6,2,2,0.55,0.866666667,0.24,0.93,0.111111111,0.375,0.333333333,0.75
7141,2,21,red2,0.78,8406,0.78,8909,0.67,8654,0.87,7257,0.8,11294.25,0.8,6418.73,-0.11,0.55,0,0.666666667,3894.729167,3934.020833,0.541666667,0.75,0.666666667,0.875,3646.166667,2944.916667,4051.75,4161.416667,3678.076923,2963.055556,4188.75,4199,0.708333333,0.458333333,3736.588235,5254.090909,3754.5,4809.625,0.922617693,0.636960588,0.653155738,1.223012033,0.326093844,1.045715925,0.645833333,0.770833333,0.541666667,0.75,0.666666667,0.875,0.291666667,0.541666667,16,6,2,4,3,1,0.47,0.573333333,0.373333333,0.27,0.222222222,0.375,0.333333333,0.575
7172,1,20,blue1,0.92,5104,0.92,5104,0.8,6008,1,5171,0.87,4380,1,4857,0.5,0.7,1,0.916666667,3307.805556,3327.227273,0.958333333,1,0.958333333,0.958333333,2452.583333,2524.291667,4422.458333,3882.583333,2453.347826,2524.291667,4422.608696,3962.304348,0.791666667,0.833333333,2594.421053,4001.85,2578.375,3986.541667,2.849051933,2.699085962,2.543882198,2.849051933,2.699085962,2.699085962,0.979166667,0.958333333,0.958333333,1,0.958333333,0.958333333,0.208333333,0.166666667,20,5,3,2,5,5,0.84,0.92,0.76,1,0.777777778,0.666666667,0.666666667,0.825
7215,1,20,blue1,0.83,2239,0.83,2239,0.53,2679,1,2207,0.93,2007,0.87,2063,0.470588235,0.85,4,0.881944444,2938.666667,2897.15748,0.875,1,0.708333333,1,2297.041667,2088.416667,3942.041667,3417.625,2345.571429,2088.416667,4421.705882,3417.625,0.958333333,0.75,2418.521739,3096.777778,2432.5,3454.375,3.26578494,1.728962202,2.882013776,3.768498528,1.223012033,2.711323882,0.9375,0.854166667,0.875,1,0.708333333,1,0.041666667,0.25,19,8,5,4,0,2,0.35,0.373333333,0.333333333,0.87,0.555555556,0.583333333,0.6,0.725
7244,1,21,green2,0.87,3929,0.87,3929,0.67,3510,0.87,4500,0.93,4061,1,3645,0.5,0.6,5,0.902777778,3105.597222,3101.246154,1,0.958333333,0.916666667,0.958333333,2284.791667,1857.833333,4281.958333,3986.458333,2284.791667,1884.956522,4251.272727,4057.608696,0.708333333,0.875,2207.882353,3837.428571,2212,4010.541667,2.585356414,2.684469925,2.585356414,2.280186679,2.533343507,2.882013776,0.979166667,0.9375,1,0.958333333,0.916666667,0.958333333,0.291666667,0.125,17,5,1,5,2,4,0.79,0.746666667,0.826666667,0.8,0.611111111,0.5,0.2,0.7
7245,1,21,green1,0.97,3675,0.97,3675,0.93,3386,0.93,4565,1,3903,1,2845,0.076923077,0.65,1,0.958333333,3690.173611,3641.231884,1,1,1,0.875,2858.75,2920.25,4691.416667,4434.041667,2858.75,2920.25,4691.416667,4549.285714,0.916666667,0.958333333,2628.045455,4254.26087,2934.75,4301.833333,3.693985465,3.26578494,3.419828259,3.419828259,3.768498528,2.882013776,1,0.9375,1,1,1,0.875,0.083333333,0.041666667,24,5,5,10,1,3,0.96,0.973333333,0.946666667,0.67,0.722222222,0.75,0.733333333,0.825
7279,2,19,blue2,0.88,4707,0.88,4799,0.73,5589,0.93,4804,0.93,3817.15,0.93,4617.93,0.11,0.95,1,0.840277778,3807.006944,3669.008264,0.958333333,0.916666667,0.75,1,3012.25,2903.208333,5330.5,4504.25,3056.347826,2862.090909,5258.277778,4504.25,0.708333333,0.708333333,2713.058824,3636.176471,2985.125,4106.708333,2.082642827,1.698871663,2.280186679,1.93151641,1.223012033,2.585356414,0.9375,0.875,0.958333333,0.916666667,0.75,1,0.291666667,0.291666667,11,3,1,7,0,0,0.86,0.733333333,0.986666667,0.33,0.333333333,0.458333333,0.266666667,0.65
7420,1,26,blue1,0.92,7225,0.92,7225,0.87,8369,0.93,7196,0.93,6422,0.93,6912,0.222222222,0.45,1,0.868055556,4012.215278,3902.928,0.875,0.958333333,0.875,0.958333333,3459.75,3141.625,4740.833333,4698.583333,3355.571429,3089.869565,4772.714286,4688.173913,0.875,0.666666667,3337.238095,4262.1875,3438.375,4594.125,2.533343507,1.813721426,2.300698761,2.882013776,1.58107668,2.162391695,0.916666667,0.916666667,0.875,0.958333333,0.875,0.958333333,0.125,0.333333333,8,3,1,1,2,1,0.7,0.706666667,0.693333333,0.4,0.5,0.5,0.6,0.8
7467,1,19,green1,0.95,3472,0.95,3546,0.8,3781.08,1,3797.13,1,3430,1,2879,0.41,0.75,1,0.756944444,3796.8125,3745.027523,0.708333333,0.916666667,0.708333333,0.916666667,3116,3121.291667,4339.333333,4274.958333,2820.058824,3002.045455,4313.764706,4334.863636,0.708333333,0.583333333,3574.647059,4625.142857,3367,4562.291667,1.435668842,1.097574953,1.097044565,1.93151641,0.758950677,1.593422521,0.8125,0.8125,0.708333333,0.916666667,0.708333333,0.916666667,0.291666667,0.416666667,12,2,1,7,1,1,0.91,0.96,0.866666667,0.87,0.388888889,0.416666667,0.866666667,0.8
7494,2,19,yellow2,0.97,2334,0.97,2380,0.93,2685.86,1,2245,1,2528,0.93,1878,0.69,0.7,0,NA,NA,NA,NA,NA,NA,NA,NA,NA,NA,NA,NA,NA,NA,NA,NA,NA,NA,NA,NA,NA,NA,NA,NA,NA,NA,NA,NA,NA,NA,NA,NA,NA,NA,NA,33,10,7,3,3,10,0.78,0.773333333,0.786666667,NA,0.611111111,NA,NA,NA
7566,2,18,yellow1,0.72,4609,0.72,4609,0.4,4066.5,0.87,5948.77,0.93,3827,0.67,4595,0.18,0.55,2,0.840277778,4746.194444,4463.884298,0.958333333,0.875,0.916666667,0.958333333,3745.333333,3202.333333,5942.916667,5311.708333,3551.478261,2893.047619,5840.909091,5292.782609,0.75,0.583333333,3909.666667,5506,4636.75,5638.125,2.057483877,1.744548939,2.406154146,1.824839131,1.593422521,1.94209279,0.916666667,0.9375,0.958333333,0.875,0.916666667,0.958333333,0.25,0.416666667,18,6,2,4,4,2,0.83,0.853333333,0.813333333,0.47,0.222222222,0.5,0.266666667,0.55
7585,1,29,green1,0.95,5157,0.95,5157,1,5686,0.87,4914,0.93,5186,1,4843,-0.076923077,0.65,1,0.9375,4723.472222,4665.548148,0.958333333,0.958333333,0.958333333,1,3242.208333,2894.25,6868.041667,6255.208333,3214.782609,2796.130435,6854.521739,6255.208333,0.875,0.875,3228.285714,5525,3315.458333,5765.666667,2.882013776,3.187183512,2.882013776,2.882013776,2.882013776,3.187183512,0.958333333,0.979166667,0.958333333,0.958333333,0.958333333,1,0.125,0.125,25,5,2,6,6,6,0.9,0.92,0.88,0.73,0.611111111,0.625,0.666666667,0.8
7591,2,22,blue1,0.85,4032,0.85,4199,0.6,3815,0.87,4416,0.93,3903.64,1,3992.64,0.59,0.6,0,0.777777778,4486.701389,4334.741071,0.791666667,0.916666667,0.708333333,0.958333333,3459.833333,3186.25,5674.541667,5248.291667,3075.473684,2965.272727,5689.941176,5253.130435,0.666666667,0.625,4227.9375,5108.2,3969.291667,5382,1.485199751,1.28606093,1.242945101,1.813721426,0.867161647,2.05030376,0.854166667,0.833333333,0.791666667,0.916666667,0.708333333,0.958333333,0.333333333,0.375,17,5,2,5,1,4,0.57,0.48,0.666666667,0.47,0.555555556,0.458333333,0.533333333,0.675
7623,1,23,yellow1,0.87,7942,0.87,7942,0.67,9245,0.93,8644,1,7017,0.87,6864,0.315789474,0.95,1,0.743055556,2926.618056,2922.878505,0.666666667,0.916666667,0.708333333,0.916666667,2313.375,2267.208333,3665.458333,3167.291667,2167.875,2270.909091,3774.941176,3088.409091,0.666666667,0.583333333,2928.3125,3509.285714,2721.625,3424.75,1.242945101,1.097574953,0.861454599,1.813721426,0.758950677,1.593422521,0.791666667,0.8125,0.666666667,0.916666667,0.708333333,0.916666667,0.333333333,0.416666667,17,8,2,3,1,3,0.47,0.6,0.346666667,0.73,0.388888889,0.541666667,0.333333333,0.6
7638,1,18,red1,0.92,4602,0.92,4602,0.8,4666,1,4221,0.93,4244,0.93,5278,0.615384615,0.65,3,0.868055556,3454.541667,3403.696,0.875,1,0.791666667,0.875,2377.708333,2234.833333,4673.625,4502.25,2418.095238,2234.833333,4793.736842,4433.47619,0.875,0.791666667,2646.285714,4278.421053,2611.583333,4327.25,2.684469925,1.779639368,2.300698761,3.187183512,1.624435603,1.962567182,0.9375,0.833333333,0.875,1,0.791666667,0.875,0.125,0.208333333,27,6,5,8,1,7,0.8,0.76,0.84,0.47,0.722222222,0.5,0.8,0.825
7676,2,20,yellow1,0.65,3690,0.65,3585,0.47,2837.29,0.67,4175.9,0.6,3768,0.87,3977,0.9,0.6,14,0.402777778,2378.861111,2430.982759,0.208333333,0.541666667,0.291666667,0.25,2118.583333,2808.666667,1545.041667,2486.125,1350.4,2792.461538,1481.857143,2344.666667,0.5,0.625,2437.166667,2950.4,2589.583333,2725.166667,-0.318639364,-0.291655246,-0.812217801,0.104633456,-0.229882919,-0.355850386,0.375,0.270833333,0.208333333,0.541666667,0.291666667,0.25,0.5,0.375,21,1,4,3,5,8,NA,NA,NA,0.07,0.111111111,0.291666667,0.066666667,0.65
7684,1,18,green2,0.7,3900,0.7,3900,0.6,4445,0.73,3899,0.67,3427,0.8,3829,0.384615385,0.65,3,NA,NA,NA,NA,NA,NA,NA,NA,NA,NA,NA,NA,NA,NA,NA,NA,NA,NA,NA,NA,NA,NA,NA,NA,NA,NA,NA,NA,NA,NA,NA,NA,NA,NA,NA,22,5,5,6,4,2,0.83,0.826666667,0.84,NA,0.388888889,NA,NA,NA
7749,1,18,yellow1,0.83,3242,0.83,3242,0.53,4620,1,3219,0.87,3079,0.93,2049,0.444444444,0.9,0,0.958333333,2607.402778,2607.355072,0.958333333,1,0.958333333,1,2103.791667,1945.708333,3390.541667,3232.25,2099.217391,1945.708333,3371.913043,3232.25,0.916666667,0.916666667,2152.181818,2834.545455,2118.375,2853.75,3.419828259,3.419828259,3.114658523,3.419828259,3.114658523,3.419828259,0.979166667,0.979166667,0.958333333,1,0.958333333,1,0.083333333,0.083333333,37,8,7,7,9,6,0.51,0.653333333,0.36,0.53,0.388888889,0.75,0.666666667,0.8
7756,2,19,blue2,0.97,3149,0.97,3149,0.87,3563,1,3234,1,2677.29,1,3120.67,0.19,0.75,0,0.826388889,1943.256944,1890.394958,0.875,0.875,1,0.958333333,2107.875,1894.458333,1689,1665.666667,2005.809524,1912,1689,1623.26087,0.791666667,0.458333333,2169.368421,2144.909091,2317.208333,1985.333333,1.962567182,1.932200676,1.962567182,1.962567182,1.932200676,1.627030941,0.875,0.979166667,0.875,0.875,1,0.958333333,0.208333333,0.541666667,21,3,3,6,4,5,0.61,0.72,0.506666667,0.53,0.777777778,0.625,0.6,0.7
7790,1,23,red2,0.78,4641,0.78,4764,0.67,4788,0.8,4164,0.67,5203.8,1,4408.53,0.77,0.65,2,0.673611111,5069.368056,5112.690722,0.666666667,0.916666667,0.75,1,5636.833333,5140.333333,5749.958333,4503.958333,5556.5,5336.454545,6085.388889,4503.958333,0.375,0.333333333,3737.666667,4794.25,4491.875,4893.25,0.493578438,0.719622081,0.112087935,1.064354763,0.243762451,1.606106832,0.791666667,0.875,0.666666667,0.916666667,0.75,1,0.625,0.666666667,19,3,3,6,1,6,0.93,0.933333333,0.92,0.2,0.277777778,0.458333333,0.133333333,0.7
7860,1,23,green1,0.85,7922,0.85,7922,0.73,8553.18,0.87,7218.31,0.87,9062,0.93,6854,NA,NA,NA,0.909722222,3395.152778,3448.122137,0.958333333,1,1,1,2759.041667,2894.541667,4078.166667,3727.041667,2776.304348,2894.541667,4078.166667,3727.041667,0.958333333,0.541666667,3364.130435,4129.230769,3477.416667,3434.708333,3.768498528,2.415624794,3.463328792,3.768498528,2.141467587,2.141467587,0.979166667,1,0.958333333,1,1,1,0.041666667,0.458333333,16,4,4,6,2,0,0.8,0.826666667,0.773333333,0.6,0.555555556,0.5,0.333333333,0.675
7861,2,20,green2,0.95,3362,0.95,3586,1,2807.64,0.93,3979.77,0.87,3751,1,2911,0.31,0.8,5,0.861111111,4376.555556,4339.395161,0.833333333,1,0.708333333,0.875,3305.083333,2746.583333,5183.625,5570.958333,3290.45,2746.583333,5441.411765,5555.809524,0.916666667,0.833333333,3679,5812.2,3616.5,5836.583333,2.765988254,1.779639368,2.350415693,3.419828259,1.515943849,2.117770946,0.916666667,0.791666667,0.833333333,1,0.708333333,0.875,0.083333333,0.166666667,16,2,2,7,2,3,0.82,0.853333333,0.786666667,0.6,0.555555556,0.5,0.733333333,0.8
